SDTM Class,Domain,Variable Order,Class,Dataset Name,Variable Name,Variable Label,Type,CDISC CT Codelist Code(s),Codelist Submission Value(s),Described Value Domain(s),Value List,Role,Core,CDISC Notes
Interventions,AG,1.0,Interventions,AG,STUDYID,Study Identifier,Char,,,,,Identifier,Req,Unique identifier for a study.
Interventions,AG,2.0,Interventions,AG,DOMAIN,Domain Abbreviation,Char,,,,AG,Identifier,Req,Two-character abbreviation for the domain.
Interventions,AG,3.0,Interventions,AG,USUBJID,Unique Subject Identifier,Char,,,,,Identifier,Req,Identifier used to uniquely identify a subject across all studies for all applications or submissions involving the product.
Interventions,AG,4.0,Interventions,AG,AGSEQ,Sequence Number,Num,,,,,Identifier,Req,Sequence number given to ensure uniqueness of subject records within a domain. May be any valid number.
Interventions,AG,5.0,Interventions,AG,AGGRPID,Group ID,Char,,,,,Identifier,Perm,Used to tie together a block of related records in a single domain for a subject.
Interventions,AG,6.0,Interventions,AG,AGSPID,Sponsor-Defined Identifier,Char,,,,,Identifier,Perm,Sponsor-defined reference number. May be preprinted on the CRF as an explicit line identifier or defined in the sponsor's operational database. Example: Line number from the procedure or test page.
Interventions,AG,7.0,Interventions,AG,AGLNKID,Link ID,Char,,,,,Identifier,Perm,Identifier used to link related records across domains.This may be a one-to-one or a one-to-many relationship.
Interventions,AG,8.0,Interventions,AG,AGLNKGRP,Link Group ID,Char,,,,,Identifier,Perm,Identifier used to link related records across domains.This will usually be a many-to-one relationship.
Interventions,AG,9.0,Interventions,AG,AGTRT,Reported Agent Name,Char,,,,,Topic,Req,Verbatim medication name that is either preprinted or collected on a CRF.
Interventions,AG,10.0,Interventions,AG,AGMODIFY,Modified Reported Name,Char,,,,,Synonym Qualifier,Perm,"If AGTRT is modified to facilitate coding, then AGMODIFY will contain the modified text."
Interventions,AG,11.0,Interventions,AG,AGDECOD,Standardized Agent Name,Char,,,,,Synonym Qualifier,Perm,"Standardized or dictionary-derived text description of AGTRT or AGMODIFY. Equivalent to the generic medication name in WHO Drug. The sponsor is expected to provide the dictionary name and version used to map the terms utilizing the external codelist element in the Define-XML document. If an intervention term does not have a decode value in the dictionary, then AGDECOD will be left blank."
Interventions,AG,12.0,Interventions,AG,AGCAT,Category for Agent,Char,,,,,Grouping Qualifier,Perm,"Used to define a category of agent. Examples: ""CHALLENGE AGENT"", ""PET TRACER""."
Interventions,AG,13.0,Interventions,AG,AGSCAT,Subcategory for Agent,Char,,,,,Grouping Qualifier,Perm,Further categorization of agent.
Interventions,AG,14.0,Interventions,AG,AGPRESP,AG Pre-Specified,Char,C66742,,,,Variable Qualifier,Perm,"Used to indicate whether (""Y""/null) information about the use of a specific agent was solicited on the CRF."
Interventions,AG,15.0,Interventions,AG,AGOCCUR,AG Occurrence,Char,C66742,,,,Record Qualifier,Perm,"When the use of specific agent is solicited, AGOCCUR is used to indicate whether (""Y""/""N"") use of the agent occurred. Values are null for agents not specifically solicited."
Interventions,AG,16.0,Interventions,AG,AGSTAT,Completion Status,Char,C66789,,,,Record Qualifier,Perm,"Used to indicate that a question about a prespecified agent was not answered. Should be null or have a value of ""NOT DONE""."
Interventions,AG,17.0,Interventions,AG,AGREASND,Reason Procedure Agent Not Collected,Char,,,,,Record Qualifier,Perm,"Describes the reason a response to a question about the occurrence of a procedure agent was not collected. Used in conjunction with AGSTAT when value is ""NOT DONE""."
Interventions,AG,18.0,Interventions,AG,AGCLAS,Agent Class,Char,,,,,Variable Qualifier,Perm,"Drug class. May be obtained from coding. When coding to a single class, populate with class value. If using a dictionary and coding to multiple classes, follow guidance in Section 4.2.8.3, Multiple Values for a Non-result Qualifier Variable, or omit AGCLAS."
Interventions,AG,19.0,Interventions,AG,AGCLASCD,Agent Class Code,Char,,,,,Variable Qualifier,Perm,"Class code corresponding to AGCLAS. Drug class. May be obtained from coding. When coding to a single class, populate with class code. If using a dictionary and coding to multiple classes, follow guidance in Section 4.2.8.3, Multiple Values for a Non-result Qualifier Variable, or omit AGCLASCD."
Interventions,AG,20.0,Interventions,AG,AGDOSE,Dose per Administration,Num,,,,,Record Qualifier,Perm,Amount of AGTRT taken.
Interventions,AG,21.0,Interventions,AG,AGDOSTXT,Dose Description,Char,,,,,Record Qualifier,Perm,"Dosing amounts or a range of dosing information collected in text form. Units may be stored in AGDOSU. Examples: ""200-400"", ""15-20""."
Interventions,AG,22.0,Interventions,AG,AGDOSU,Dose Units,Char,C71620,,,,Variable Qualifier,Perm,"Units for AGDOSE and AGDOSTXT. Examples: ""ng"", ""mg"", ""mg/kg""."
Interventions,AG,23.0,Interventions,AG,AGDOSFRM,Dose Form,Char,C66726,,,,Variable Qualifier,Perm,"Dose form for AGTRT. Examples: ""TABLET"", ""AEROSOL""."
Interventions,AG,24.0,Interventions,AG,AGDOSFRQ,Dosing Frequency per Interval,Char,C71113,,,,Record Qualifier,Perm,"Usually expressed as the number of repeated administrations of AGDOSE within a specific time period. Example: ""ONCE""."
Interventions,AG,25.0,Interventions,AG,AGROUTE,Route of Administration,Char,C66729,,,,Variable Qualifier,Perm,"Route of administration for AGTRT. Example: ""ORAL""."
Interventions,AG,26.0,Interventions,AG,VISITNUM,Visit Number,Num,,,,,Timing,Exp,"1. Clinical encounter number. \n 2. Numeric version of VISIT, used for sorting."
Interventions,AG,27.0,Interventions,AG,VISIT,Visit Name,Char,,,,,Timing,Perm,1. Protocol-defined description of clinical encounter. \n 2. May be used in addition to VISITNUM and/or VISITDY.
Interventions,AG,28.0,Interventions,AG,VISITDY,Planned Study Day of Visit,Num,,,,,Timing,Perm,Planned study day of the visit based upon RFSTDTC in Demographics.
Interventions,AG,29.0,Interventions,AG,TAETORD,Planned Order of Element within Arm,Num,,,,,Timing,Perm,Number that gives the planned order of the element within the arm for the element in which the agent administration started.
Interventions,AG,30.0,Interventions,AG,EPOCH,Epoch,Char,C99079,,,,Timing,Perm,Epoch associated with the start date/time of the agent administration started.
Interventions,AG,31.0,Interventions,AG,AGSTDTC,Start Date/Time of Agent,Char,,,ISO 8601 datetime or interval,,Timing,Perm,The date/time when administration of the treatment indicated by AGTRT and the dosing variables began.
Interventions,AG,32.0,Interventions,AG,AGENDTC,End Date/Time of Agent,Char,,,ISO 8601 datetime or interval,,Timing,Perm,The date/time when administration of the treatment indicated by AGTRT and the dosing variables ended.
Interventions,AG,33.0,Interventions,AG,AGSTDY,Study Day of Start of Agent,Num,,,,,Timing,Perm,Study day of start of agent relative to the sponsor-defined RFSTDTC.
Interventions,AG,34.0,Interventions,AG,AGENDY,Study Day of End of Agent,Num,,,,,Timing,Perm,Study day of end of agent relative to the sponsor-defined RFSTDTC.
Interventions,AG,35.0,Interventions,AG,AGDUR,Duration of Agent,Char,,,ISO 8601 duration,,Timing,Perm,Collected duration for an agent episode. Used only if collected on the CRF and not derived from start and end date/times.
Interventions,AG,36.0,Interventions,AG,AGSTRF,Start Relative to Reference Period,Char,C66728,,,,Timing,Perm,"Describes the start of the agent relative to sponsor-defined reference period. The sponsor-defined reference period is a continuous period of time defined by a discrete starting point and a discrete ending point (represented by RFSTDTC and RFENDTC in Demographics). If information such as ""PRIOR"", ""ONGOING"", or ""CONTINUING"" was collected, this information may be translated into AGSTRF. \n Not all values of the codelist are allowable for this variable. See Section 4.4.7, Use of Relative Timing Variables."
Interventions,AG,37.0,Interventions,AG,AGENRF,End Relative to Reference Period,Char,C66728,,,,Timing,Perm,"Describes the end of the agent relative to the sponsor-defined reference period. The sponsor-defined reference period is a continuous period of time defined by a discrete starting point and a discrete ending point (represented by RFSTDTC and RFENDTC in Demographics). If information such as ""PRIOR"", ""ONGOING"", or ""CONTINUING"" was collected, this information may be translated into AGENRF. \n Not all values of the codelist are allowable for this variable. See Section 4.4.7, Use of Relative Timing Variables."
Interventions,AG,38.0,Interventions,AG,AGSTRTPT,Start Relative to Reference Time Point,Char,C66728,,,,Timing,Perm,"Identifies the start of the agent as being before or after the sponsor-defined reference time point defined by variable AGSTTPT. \n Not all values of the codelist are allowable for this variable. See Section 4.4.7, Use of Relative Timing Variables."
Interventions,AG,39.0,Interventions,AG,AGSTTPT,Start Reference Time Point,Char,,,,,Timing,Perm,"Description or date/time in ISO 8601 character format of the reference point referred to by AGSTRTPT. Examples: ""2003-12-15"", ""VISIT 1""."
Interventions,AG,40.0,Interventions,AG,AGENRTPT,End Relative to Reference Time Point,Char,C66728,,,,Timing,Perm,"Identifies the end of the agent as being before or after the reference time point defined by variable AGENTPT. Identifies the end of the agent as being before or after the sponsor-defined reference time point defined by variable AGENTPT. \n Not all values of the codelist are allowable for this variable. See Section 4.4.7, Use of Relative Timing Variables."
Interventions,AG,41.0,Interventions,AG,AGENTPT,End Reference Time Point,Char,,,,,Timing,Perm,"Description or date/time in ISO 8601 character format of the reference point referred to by AGENRTPT. Examples: ""2003-12-25"", ""VISIT 2""."
Interventions,CM,1.0,Interventions,CM,STUDYID,Study Identifier,Char,,,,,Identifier,Req,Unique identifier for a study.
Interventions,CM,2.0,Interventions,CM,DOMAIN,Domain Abbreviation,Char,,,,CM,Identifier,Req,Two-character abbreviation for the domain.
Interventions,CM,3.0,Interventions,CM,USUBJID,Unique Subject Identifier,Char,,,,,Identifier,Req,Identifier used to uniquely identify a subject across all studies for all applications or submissions involving the product.
Interventions,CM,4.0,Interventions,CM,CMSEQ,Sequence Number,Num,,,,,Identifier,Req,Sequence number to ensure uniqueness of subject records within a domain. May be any valid number.
Interventions,CM,5.0,Interventions,CM,CMGRPID,Group ID,Char,,,,,Identifier,Perm,Used to tie together a block of related records in a single domain for a subject.
Interventions,CM,6.0,Interventions,CM,CMSPID,Sponsor-Defined Identifier,Char,,,,,Identifier,Perm,Sponsor-defined reference number. Example: a number preprinted on the CRF as an explicit line identifier or record identifier defined in the sponsor's operational database. Example: line number on a concomitant medication page.
Interventions,CM,7.0,Interventions,CM,CMTRT,"Reported Name of Drug, Med, or Therapy",Char,,,,,Topic,Req,Verbatim medication name that is either preprinted or collected on a CRF.
Interventions,CM,8.0,Interventions,CM,CMMODIFY,Modified Reported Name,Char,,,,,Synonym Qualifier,Perm,"If CMTRT is modified to facilitate coding, then CMMODIFY will contain the modified text."
Interventions,CM,9.0,Interventions,CM,CMDECOD,Standardized Medication Name,Char,,,,,Synonym Qualifier,Perm,"Standardized or dictionary-derived text description of CMTRT or CMMODIFY. Equivalent to the generic drug name in WHO Drug. The sponsor is expected to provide the dictionary name and version used to map the terms utilizing the external codelist element in the Define-XML document. If an intervention term does not have a decode value in the dictionary, then CMDECOD will be left blank."
Interventions,CM,10.0,Interventions,CM,CMCAT,Category for Medication,Char,,,,,Grouping Qualifier,Perm,"Used to define a category of medications/treatment. Examples: ""PRIOR"", ""CONCOMITANT"", ""ANTI-CANCER MEDICATION"", ""GENERAL CONMED""."
Interventions,CM,11.0,Interventions,CM,CMSCAT,Subcategory for Medication,Char,,,,,Grouping Qualifier,Perm,"A further categorization of medications/treatment. Examples: ""CHEMOTHERAPY"", ""HORMONAL THERAPY"", ""ALTERNATIVE THERAPY""."
Interventions,CM,12.0,Interventions,CM,CMPRESP,CM Pre-specified,Char,C66742,,,,Variable Qualifier,Perm,"Used to indicate whether (""Y""/null) information about the use of a specific medication was solicited on the CRF."
Interventions,CM,13.0,Interventions,CM,CMOCCUR,CM Occurrence,Char,C66742,,,,Record Qualifier,Perm,"When the use of a specific medication is solicited. CMOCCUR is used to indicate whether (""Y""/""N"") use of the medication occurred. Values are null for medications not specifically solicited."
Interventions,CM,14.0,Interventions,CM,CMSTAT,Completion Status,Char,C66789,,,,Record Qualifier,Perm,"Used to indicate that a question about the occurrence of a prespecified intervention was not answered. Should be null or have a value of ""NOT DONE""."
Interventions,CM,15.0,Interventions,CM,CMREASND,Reason Medication Not Collected,Char,,,,,Record Qualifier,Perm,"Reason not done. Used in conjunction with CMSTAT when value is ""NOT DONE""."
Interventions,CM,16.0,Interventions,CM,CMINDC,Indication,Char,,,,,Record Qualifier,Perm,"Denotes why a medication was taken or administered. Examples: ""NAUSEA"", ""HYPERTENSION""."
Interventions,CM,17.0,Interventions,CM,CMCLAS,Medication Class,Char,,,,,Variable Qualifier,Perm,"Drug class. May be obtained from coding. When coding to a single class, populate with class value. If using a dictionary and coding to multiple classes, then follow Section 4.2.8.3, Multiple Values for a Non-result Qualifier Variable, or omit CMCLAS."
Interventions,CM,18.0,Interventions,CM,CMCLASCD,Medication Class Code,Char,,,,,Variable Qualifier,Perm,"Class code corresponding to CMCLAS. Drug class. May be obtained from coding. When coding to a single class, populate with class code. If using a dictionary and coding to multiple classes, then follow Section 4.2.8.3, Multiple Values for a Non-result Qualifier Variable, or omit CMCLASCD."
Interventions,CM,19.0,Interventions,CM,CMDOSE,Dose per Administration,Num,,,,,Record Qualifier,Perm,Amount of CMTRT given. Not populated when CMDOSTXT is populated.
Interventions,CM,20.0,Interventions,CM,CMDOSTXT,Dose Description,Char,,,,,Record Qualifier,Perm,"Dosing amounts or a range of dosing information collected in text form. Units may be stored in CMDOSU. Examples: ""200-400"", ""15-20"". Not populated when CMDOSE is populated."
Interventions,CM,21.0,Interventions,CM,CMDOSU,Dose Units,Char,C71620,,,,Variable Qualifier,Perm,"Units for CMDOSE, CMDOSTOT, or CMDOSTXT. Examples: ""ng"", ""mg"", ""mg/kg""."
Interventions,CM,22.0,Interventions,CM,CMDOSFRM,Dose Form,Char,C66726,,,,Variable Qualifier,Perm,"Dose form for CMTRT. Examples: ""TABLET"", ""LOTION""."
Interventions,CM,23.0,Interventions,CM,CMDOSFRQ,Dosing Frequency per Interval,Char,C71113,,,,Record Qualifier,Perm,"Usually expressed as the number of repeated administrations of CMDOSE within a specific time period. Examples: ""BID"" (twice daily), ""Q12H"" (every 12 hours)."
Interventions,CM,24.0,Interventions,CM,CMDOSTOT,Total Daily Dose,Num,,,,,Record Qualifier,Perm,Total daily dose of CMTRT using the units in CMDOSU. Used when dosing is collected as total daily dose. Total dose over a period other than day could be recorded in a separate supplemental qualifier variable.
Interventions,CM,25.0,Interventions,CM,CMDOSRGM,Intended Dose Regimen,Char,,,,,Record Qualifier,Perm,"Text description of the (intended) schedule or regimen for the Intervention. Example: ""TWO WEEKS ON, TWO WEEKS OFF""."
Interventions,CM,26.0,Interventions,CM,CMROUTE,Route of Administration,Char,C66729,,,,Variable Qualifier,Perm,"Route of administration for the intervention. Examples: ""ORAL"", ""INTRAVENOUS""."
Interventions,CM,27.0,Interventions,CM,CMADJ,Reason for Dose Adjustment,Char,,,,,Record Qualifier,Perm,"Describes reason or explanation of why a dose is adjusted. Examples: ""ADVERSE EVENT"", ""INSUFFICIENT RESPONSE"", ""NON-MEDICAL REASON""."
Interventions,CM,28.0,Interventions,CM,CMRSDISC,Reason the Intervention Was Discontinued,Char,,,,,Record Qualifier,Perm,"When dosing of a treatment is recorded over multiple successive records, this variable is applicable only for the (chronologically) last record for the treatment."
Interventions,CM,29.0,Interventions,CM,TAETORD,Planned Order of Element within Arm,Num,,,,,Timing,Perm,Number that gives the planned order of the element within the arm for the element in which the medication administration started. Null for medications that started before study participation.
Interventions,CM,30.0,Interventions,CM,EPOCH,Epoch,Char,C99079,,,,Timing,Perm,Epoch associated with the start date/time of the medication administration. Null for medications that started before study participation.
Interventions,CM,31.0,Interventions,CM,CMSTDTC,Start Date/Time of Medication,Char,,,ISO 8601 datetime or interval,,Timing,Perm,Start date/time of the medication administration represented in ISO 8601 character format.
Interventions,CM,32.0,Interventions,CM,CMENDTC,End Date/Time of Medication,Char,,,ISO 8601 datetime or interval,,Timing,Perm,End date/time of the medication administration represented in ISO 8601 character format.
Interventions,CM,33.0,Interventions,CM,CMSTDY,Study Day of Start of Medication,Num,,,,,Timing,Perm,Study day of start of medication relative to the sponsor-defined RFSTDTC.
Interventions,CM,34.0,Interventions,CM,CMENDY,Study Day of End of Medication,Num,,,,,Timing,Perm,Study day of end of medication relative to the sponsor-defined RFSTDTC.
Interventions,CM,35.0,Interventions,CM,CMDUR,Duration,Char,,,ISO 8601 duration,,Timing,Perm,Collected duration for a treatment episode. Used only if collected on the CRF and not derived from start and end date/times.
Interventions,CM,36.0,Interventions,CM,CMSTRF,Start Relative to Reference Period,Char,C66728,,,,Timing,Perm,"Describes the start of the medication relative to sponsor-defined reference period. The sponsor-defined reference period is a continuous period of time defined by a discrete starting point and a discrete ending point (represented by RFSTDTC and RFENDTC in Demographics). If information such as ""PRIOR"" was collected, this information may be translated into CMSTRF. \n Not all values of the codelist are allowable for this variable. See Section 4.4.7, Use of Relative Timing Variables."
Interventions,CM,37.0,Interventions,CM,CMENRF,End Relative to Reference Period,Char,C66728,,,,Timing,Perm,"Describes the end of the medication relative to the sponsor-defined reference period. The sponsor-defined reference period is a continuous period of time defined by a discrete starting point and a discrete ending point (represented by RFSTDTC and RFENDTC in Demographics). If information such as ""PRIOR"", ""ONGOING, or ""CONTINUING"" was collected, this information may be translated into CMENRF. \n Not all values of the codelist are allowable for this variable. See Section 4.4.7, Use of Relative Timing Variables."
Interventions,CM,38.0,Interventions,CM,CMSTRTPT,Start Relative to Reference Time Point,Char,C66728,,,,Timing,Perm,"Identifies the start of the medication as being before or after the sponsor-defined reference time point defined by variable CMSTTPT. \n Not all values of the codelist are allowable for this variable. See Section 4.4.7, Use of Relative Timing Variables."
Interventions,CM,39.0,Interventions,CM,CMSTTPT,Start Reference Time Point,Char,,,,,Timing,Perm,"Description or date/time in ISO 8601 character format of the sponsor-defined reference point referred to by CMSTRTPT. Examples: ""2003-12-15"", ""VISIT 1""."
Interventions,CM,40.0,Interventions,CM,CMENRTPT,End Relative to Reference Time Point,Char,C66728,,,,Timing,Perm,"Identifies the end of the medication as being before or after the sponsor-defined reference time point defined by variable CMENTPT. \n Not all values of the codelist are allowable for this variable. See Section 4.4.7, Use of Relative Timing Variables."
Interventions,CM,41.0,Interventions,CM,CMENTPT,End Reference Time Point,Char,,,,,Timing,Perm,"Description or date/time in ISO 8601 character format of the sponsor-defined reference point referred to by CMENRTPT. Examples: ""2003-12-25"", ""VISIT 2""."
Interventions,EC,1.0,Interventions,EC,STUDYID,Study Identifier,Char,,,,,Identifier,Req,Unique identifier for a study.
Interventions,EC,2.0,Interventions,EC,DOMAIN,Domain Abbreviation,Char,,,,EC,Identifier,Req,Two-character abbreviation for the domain.
Interventions,EC,3.0,Interventions,EC,USUBJID,Unique Subject Identifier,Char,,,,,Identifier,Req,Identifier used to uniquely identify a subject across all studies for all applications or submissions involving the product.
Interventions,EC,4.0,Interventions,EC,ECSEQ,Sequence Number,Num,,,,,Identifier,Req,Sequence number given to ensure uniqueness of subject records within a domain. May be any valid number.
Interventions,EC,5.0,Interventions,EC,ECGRPID,Group ID,Char,,,,,Identifier,Perm,Used to tie together a block of related records in a single domain for a subject.
Interventions,EC,6.0,Interventions,EC,ECREFID,Reference ID,Char,,,,,Identifier,Perm,"Internal or external identifier (e.g., kit number, bottle label, vial identifier)."
Interventions,EC,7.0,Interventions,EC,ECSPID,Sponsor-Defined Identifier,Char,,,,,Identifier,Perm,Sponsor-defined reference number. May be preprinted on the CRF as an explicit line identifier or defined in the sponsor's operational database. Example: Line number on a CRF page.
Interventions,EC,8.0,Interventions,EC,ECLNKID,Link ID,Char,,,,,Identifier,Perm,Identifier used to link related records across domains.
Interventions,EC,9.0,Interventions,EC,ECLNKGRP,Link Group ID,Char,,,,,Identifier,Perm,"Identifier used to link related, grouped records across domains."
Interventions,EC,10.0,Interventions,EC,ECTRT,Name of Treatment,Char,,,,,Topic,Req,Name of the intervention treatment known to the subject and/or administrator.
Interventions,EC,11.0,Interventions,EC,ECMOOD,Mood,Char,C125923,,,,Record Qualifier,Perm,"Mode or condition of the record specifying whether the intervention (activity) is intended to happen or has happened. Values align with BRIDG pillars (e.g., scheduled context, performed context) and HL7 activity moods (e.g., intent, event). Examples: ""SCHEDULED"", ""PERFORMED""."
Interventions,EC,12.0,Interventions,EC,ECCAT,Category of Treatment,Char,,,,,Grouping Qualifier,Perm,Used to define a category of related ECTRT values.
Interventions,EC,13.0,Interventions,EC,ECSCAT,Subcategory of Treatment,Char,,,,,Grouping Qualifier,Perm,A further categorization of ECCAT values.
Interventions,EC,14.0,Interventions,EC,ECPRESP,Pre-Specified,Char,C66742,,,,Variable Qualifier,Perm,"Used when a specific intervention is prespecified. Values should be ""Y"" or null."
Interventions,EC,15.0,Interventions,EC,ECOCCUR,Occurrence,Char,C66742,,,,Record Qualifier,Perm,"Used to indicate whether a treatment occurred when information about the occurrence is solicited. ECOCCUR = ""N"" when a treatment was not taken, not given, or missed."
Interventions,EC,16.0,Interventions,EC,ECREASOC,Reason for Occur Value,Char,,,,,Record Qualifier,Perm,"The reason for the value in --OCCUR. If --OCCUR = ""N"", this is the reason the exposure did not occur."
Interventions,EC,17.0,Interventions,EC,ECDOSE,Dose,Num,,,,,Record Qualifier,Exp,Amount of ECTRT when numeric. Not populated when ECDOSTXT is populated.
Interventions,EC,18.0,Interventions,EC,ECDOSTXT,Dose Description,Char,,,,,Record Qualifier,Perm,"Amount of ECTRT when non-numeric. Dosing amounts or a range of dosing information collected in text form. Example: ""200-400"". Not populated when ECDOSE is populated."
Interventions,EC,19.0,Interventions,EC,ECDOSU,Dose Units,Char,C71620,,,,Variable Qualifier,Exp,"Units for ECDOSE, ECDOSTOT, or ECDOSTXT."
Interventions,EC,20.0,Interventions,EC,ECDOSFRM,Dose Form,Char,C66726,,,,Variable Qualifier,Exp,"Dose form for ECTRT. Examples: ""TABLET"", ""LOTION""."
Interventions,EC,21.0,Interventions,EC,ECDOSFRQ,Dosing Frequency per Interval,Char,C71113,,,,Record Qualifier,Perm,"Usually expressed as the number of repeated administrations of ECDOSE within a specific time period. Examples: ""Q2H"", ""QD"", ""BID""."
Interventions,EC,22.0,Interventions,EC,ECDOSTOT,Total Daily Dose,Num,,,,,Record Qualifier,Perm,Total daily dose of ECTRT using the units in ECDOSU. Used when dosing is collected as total daily dose.
Interventions,EC,23.0,Interventions,EC,ECDOSRGM,Intended Dose Regimen,Char,,,,,Record Qualifier,Perm,"Text description of the intended schedule or regimen for the Intervention. Example: ""TWO WEEKS ON"", ""TWO WEEKS OFF""."
Interventions,EC,24.0,Interventions,EC,ECROUTE,Route of Administration,Char,C66729,,,,Variable Qualifier,Perm,"Route of administration for the intervention. Examples: ""ORAL"", ""INTRAVENOUS""."
Interventions,EC,25.0,Interventions,EC,ECLOT,Lot Number,Char,,,,,Record Qualifier,Perm,Lot number of the ECTRT product.
Interventions,EC,26.0,Interventions,EC,ECLOC,Location of Dose Administration,Char,C74456,,,,Record Qualifier,Perm,"Specifies location of administration. Example: ""ARM"", ""LIP""."
Interventions,EC,27.0,Interventions,EC,ECLAT,Laterality,Char,C99073,,,,Variable Qualifier,Perm,"Qualifier for anatomical location further detailing laterality of the intervention administration. Examples: ""LEFT"", ""RIGHT""."
Interventions,EC,28.0,Interventions,EC,ECDIR,Directionality,Char,C99074,,,,Variable Qualifier,Perm,"Qualifier for anatomical location further detailing directionality. Examples: ""ANTERIOR"", ""LOWER"", ""PROXIMAL"", ""UPPER""."
Interventions,EC,29.0,Interventions,EC,ECPORTOT,Portion or Totality,Char,C99075,,,,Variable Qualifier,Perm,"Qualifier for anatomical location further detailing distribution (i.e., arrangement of, apportioning of). Examples: ""ENTIRE"", ""SINGLE"", ""SEGMENT""."
Interventions,EC,30.0,Interventions,EC,ECFAST,Fasting Status,Char,C66742,,,,Record Qualifier,Perm,"Indicator used to identify fasting status. Examples: ""Y"", ""N""."
Interventions,EC,31.0,Interventions,EC,ECPSTRG,Pharmaceutical Strength,Num,,,,,Record Qualifier,Perm,"Amount of an active ingredient expressed quantitatively per dosage unit, per unit of volume, or per unit of weight, according to the pharmaceutical dose form."
Interventions,EC,32.0,Interventions,EC,ECPSTRGU,Pharmaceutical Strength Units,Char,C71620,,,,Variable Qualifier,Perm,"Unit for ECPSTRG. Examples: ""mg/TABLET"", ""mg/mL""."
Interventions,EC,33.0,Interventions,EC,ECADJ,Reason for Dose Adjustment,Char,,,,,Record Qualifier,Perm,Describes reason or explanation of why a dose is adjusted.
Interventions,EC,34.0,Interventions,EC,TAETORD,Planned Order of Element within Arm,Num,,,,,Timing,Perm,Number that gives the planned order of the element within the arm.
Interventions,EC,35.0,Interventions,EC,EPOCH,Epoch,Char,C99079,,,,Timing,Perm,"Trial epoch of the exposure as collected record. Examples: ""RUN-IN"", ""TREATMENT""."
Interventions,EC,36.0,Interventions,EC,ECSTDTC,Start Date/Time of Treatment,Char,,,ISO 8601 datetime or interval,,Timing,Exp,The date/time when administration of the treatment indicated by ECTRT and ECDOSE began.
Interventions,EC,37.0,Interventions,EC,ECENDTC,End Date/Time of Treatment,Char,,,ISO 8601 datetime or interval,,Timing,Exp,"The date/time when administration of the treatment indicated by ECTRT and ECDOSE ended. For administrations considered given at a point in time (e.g., oral tablet, pre-filled syringe injection), where only an administration date/time is collected, ECSTDTC should be copied to ECENDTC as the standard representation."
Interventions,EC,38.0,Interventions,EC,ECSTDY,Study Day of Start of Treatment,Num,,,,,Timing,Perm,Study day of ECSTDTC relative to the sponsor-defined DM.RFSTDTC.
Interventions,EC,39.0,Interventions,EC,ECENDY,Study Day of End of Treatment,Num,,,,,Timing,Perm,Study day of ECENDTC relative to the sponsor-defined DM.RFSTDTC.
Interventions,EC,40.0,Interventions,EC,ECDUR,Duration of Treatment,Char,,,ISO 8601 duration,,Timing,Perm,Collected duration of administration. Used only if collected on the CRF and not derived from start and end date/times.
Interventions,EC,41.0,Interventions,EC,ECTPT,Planned Time Point Name,Char,,,,,Timing,Perm,"Text description of time when administration should occur. This may be represented as an elapsed time relative to a fixed reference point, such as time of last dose. See ECTPTNUM and ECTPTREF."
Interventions,EC,42.0,Interventions,EC,ECTPTNUM,Planned Time Point Number,Num,,,,,Timing,Perm,Numerical version of ECTPT to aid in sorting.
Interventions,EC,43.0,Interventions,EC,ECELTM,Planned Elapsed Time from Time Point Ref,Char,,,ISO 8601 duration,,Timing,Perm,Planned elapsed time relative to the planned fixed reference (ECTPTREF). This variable is useful where there are repetitive measures. Not a clock time.
Interventions,EC,44.0,Interventions,EC,ECTPTREF,Time Point Reference,Char,,,,,Timing,Perm,"Name of the fixed reference point referred to by ECELTM, ECTPTNUM, and ECTPT. Examples: ""PREVIOUS DOSE"", ""PREVIOUS MEAL""."
Interventions,EC,45.0,Interventions,EC,ECRFTDTC,Date/Time of Reference Time Point,Char,,,ISO 8601 datetime or interval,,Timing,Perm,Date/time for a fixed reference time point defined by ECTPTREF.
Interventions,EX,1.0,Interventions,EX,STUDYID,Study Identifier,Char,,,,,Identifier,Req,Unique identifier for a study.
Interventions,EX,2.0,Interventions,EX,DOMAIN,Domain Abbreviation,Char,,,,EX,Identifier,Req,Two-character abbreviation for the domain.
Interventions,EX,3.0,Interventions,EX,USUBJID,Unique Subject Identifier,Char,,,,,Identifier,Req,Identifier used to uniquely identify a subject across all studies for all applications or submissions involving the product.
Interventions,EX,4.0,Interventions,EX,EXSEQ,Sequence Number,Num,,,,,Identifier,Req,Sequence number given to ensure uniqueness of subject records within a domain. May be any valid number.
Interventions,EX,5.0,Interventions,EX,EXGRPID,Group ID,Char,,,,,Identifier,Perm,Used to tie together a block of related records in a single domain for a subject.
Interventions,EX,6.0,Interventions,EX,EXREFID,Reference ID,Char,,,,,Identifier,Perm,"Internal or external identifier (e.g., kit number, bottle label, vial identifier)."
Interventions,EX,7.0,Interventions,EX,EXSPID,Sponsor-Defined Identifier,Char,,,,,Identifier,Perm,Sponsor-defined reference number. May be preprinted on the CRF as an explicit line identifier or defined in the sponsor's operational database. Example: Line number on a CRF page.
Interventions,EX,8.0,Interventions,EX,EXLNKID,Link ID,Char,,,,,Identifier,Perm,Identifier used to link related records across domains.
Interventions,EX,9.0,Interventions,EX,EXLNKGRP,Link Group ID,Char,,,,,Identifier,Perm,"Identifier used to link related, grouped records across domains."
Interventions,EX,10.0,Interventions,EX,EXTRT,Name of Treatment,Char,,,,,Topic,Req,Name of the protocol-specified study treatment given during the dosing period for the observation.
Interventions,EX,11.0,Interventions,EX,EXCAT,Category of Treatment,Char,,,,,Grouping Qualifier,Perm,Used to define a category of EXTRT values.
Interventions,EX,12.0,Interventions,EX,EXSCAT,Subcategory of Treatment,Char,,,,,Grouping Qualifier,Perm,A further categorization of EXCAT values.
Interventions,EX,13.0,Interventions,EX,EXDOSE,Dose,Num,,,,,Record Qualifier,Exp,Amount of EXTRT when numeric. Not populated when EXDOSTXT is populated.
Interventions,EX,14.0,Interventions,EX,EXDOSTXT,Dose Description,Char,,,,,Record Qualifier,Perm,"Amount of EXTRT when non-numeric. Dosing amounts or a range of dosing information collected in text form. Example: ""200-400"". Not populated when EXDOSE is populated."
Interventions,EX,15.0,Interventions,EX,EXDOSU,Dose Units,Char,C71620,,,,Variable Qualifier,Exp,"Units for EXDOSE, EXDOSTOT, or EXDOSTXT representing protocol-specified values. Examples: ""ng"", ""mg"", ""mg/kg"", ""mg/m2""."
Interventions,EX,16.0,Interventions,EX,EXDOSFRM,Dose Form,Char,C66726,,,,Variable Qualifier,Exp,"Dose form for EXTRT. Examples: ""TABLET"", ""LOTION""."
Interventions,EX,17.0,Interventions,EX,EXDOSFRQ,Dosing Frequency per Interval,Char,C71113,,,,Record Qualifier,Perm,"Usually expressed as the number of repeated administrations of EXDOSE within a specific time period. Examples: ""Q2H"", ""QD"", ""BID""."
Interventions,EX,18.0,Interventions,EX,EXDOSRGM,Intended Dose Regimen,Char,,,,,Record Qualifier,Perm,"Text description of the intended schedule or regimen for the Intervention. Example: ""TWO WEEKS ON, TWO WEEKS OFF""."
Interventions,EX,19.0,Interventions,EX,EXROUTE,Route of Administration,Char,C66729,,,,Variable Qualifier,Perm,"Route of administration for the intervention. Examples: ""ORAL"", ""INTRAVENOUS""."
Interventions,EX,20.0,Interventions,EX,EXLOT,Lot Number,Char,,,,,Record Qualifier,Perm,Lot number of the intervention product.
Interventions,EX,21.0,Interventions,EX,EXLOC,Location of Dose Administration,Char,C74456,,,,Record Qualifier,Perm,"Specifies location of administration. Examples: ""ARM"", ""LIP""."
Interventions,EX,22.0,Interventions,EX,EXLAT,Laterality,Char,C99073,,,,Variable Qualifier,Perm,"Qualifier for anatomical location further detailing laterality of the intervention administration. Examples: ""LEFT"", ""RIGHT""."
Interventions,EX,23.0,Interventions,EX,EXDIR,Directionality,Char,C99074,,,,Variable Qualifier,Perm,"Qualifier for anatomical location further detailing directionality. Examples: ""ANTERIOR"", ""LOWER"", ""PROXIMAL"", ""UPPER""."
Interventions,EX,24.0,Interventions,EX,EXFAST,Fasting Status,Char,C66742,,,,Record Qualifier,Perm,"Indicator used to identify fasting status. Examples: ""Y"", ""N""."
Interventions,EX,25.0,Interventions,EX,EXADJ,Reason for Dose Adjustment,Char,,,,,Record Qualifier,Perm,Describes reason or explanation of why a dose is adjusted.
Interventions,EX,26.0,Interventions,EX,TAETORD,Planned Order of Element within Arm,Num,,,,,Timing,Perm,Number that gives the planned order of the element within the arm.
Interventions,EX,27.0,Interventions,EX,EPOCH,Epoch,Char,C99079,,,,Timing,Perm,"Trial epoch of the exposure record. Examples: ""RUN-IN"", ""TREATMENT""."
Interventions,EX,28.0,Interventions,EX,EXSTDTC,Start Date/Time of Treatment,Char,,,ISO 8601 datetime or interval,,Timing,Exp,The date/time when administration of the treatment indicated by EXTRT and EXDOSE began.
Interventions,EX,29.0,Interventions,EX,EXENDTC,End Date/Time of Treatment,Char,,,ISO 8601 datetime or interval,,Timing,Exp,"The date/time when administration of the treatment indicated by EXTRT and EXDOSE ended. For administrations considered given at a point in time (e.g., oral tablet, pre-filled syringe injection), where only an administration date/time is collected, EXSTDTC should be copied to EXENDTC as the standard representation."
Interventions,EX,30.0,Interventions,EX,EXSTDY,Study Day of Start of Treatment,Num,,,,,Timing,Perm,Study day of EXSTDTC relative to DM.RFSTDTC.
Interventions,EX,31.0,Interventions,EX,EXENDY,Study Day of End of Treatment,Num,,,,,Timing,Perm,Study day of EXENDTC relative to DM.RFSTDTC.
Interventions,EX,32.0,Interventions,EX,EXDUR,Duration of Treatment,Char,,,ISO 8601 duration,,Timing,Perm,Collected duration of administration. Used only if collected on the CRF and not derived from start and end date/times.
Interventions,EX,33.0,Interventions,EX,EXTPT,Planned Time Point Name,Char,,,,,Timing,Perm,"Text description of time when administration should occur. This may be represented as an elapsed time relative to a fixed reference point, such as time of last dose. See EXTPTNUM and EXTPTREF."
Interventions,EX,34.0,Interventions,EX,EXTPTNUM,Planned Time Point Number,Num,,,,,Timing,Perm,Numerical version of EXTPT to aid in sorting.
Interventions,EX,35.0,Interventions,EX,EXELTM,Planned Elapsed Time from Time Point Ref,Char,,,ISO 8601 duration,,Timing,Perm,Planned elapsed time relative to the planned fixed reference (EXTPTREF). This variable is useful where there are repetitive measures. Not a clock time.
Interventions,EX,36.0,Interventions,EX,EXTPTREF,Time Point Reference,Char,,,,,Timing,Perm,"Name of the fixed reference point referred to by EXELTM, EXTPTNUM, and EXTPT. Examples: PREVIOUS DOSE, PREVIOUS MEAL."
Interventions,EX,37.0,Interventions,EX,EXRFTDTC,Date/Time of Reference Time Point,Char,,,ISO 8601 datetime or interval,,Timing,Perm,Date/time for a fixed reference time point defined by EXTPTREF.
Interventions,ML,1.0,Interventions,ML,STUDYID,Study Identifier,Char,,,,,Identifier,Req,Unique identifier for a study.
Interventions,ML,2.0,Interventions,ML,DOMAIN,Domain Abbreviation,Char,,,,ML,Identifier,Req,Two-character abbreviation for the domain.
Interventions,ML,3.0,Interventions,ML,USUBJID,Unique Subject Identifier,Char,,,,,Identifier,Req,Identifier used to uniquely identify a subject across all studies for all applications or submissions involving the product.
Interventions,ML,4.0,Interventions,ML,MLSEQ,Sequence Number,Num,,,,,Identifier,Req,Sequence number given to ensure uniqueness of subject records within a domain. May be any valid number.
Interventions,ML,5.0,Interventions,ML,MLGRPID,Group ID,Char,,,,,Identifier,Perm,Used to tie together a block of related records in a single domain for a subject.
Interventions,ML,6.0,Interventions,ML,MLSPID,Sponsor-Defined Identifier,Char,,,,,Identifier,Perm,"Sponsor-defined reference number. Examples: a number preprinted on the CRF as an explicit line identifier, record identifier defined in the sponsor's operational database."
Interventions,ML,7.0,Interventions,ML,MLTRT,Name of Meal,Char,,,,,Topic,Req,Verbatim food product name that is either preprinted or collected on a CRF.
Interventions,ML,8.0,Interventions,ML,MLCAT,Category for Meal,Char,,,,,Grouping Qualifier,Perm,Used to define a category of MLTRT values.
Interventions,ML,9.0,Interventions,ML,MLSCAT,Subcategory for Meal,Char,,,,,Grouping Qualifier,Perm,Used to define a further categorization of MLCAT values.
Interventions,ML,10.0,Interventions,ML,MLPRESP,ML Pre-specified,Char,C66742,,,,Variable Qualifier,Perm,"Used when a specific meal is prespecified on a CRF. Values should be ""Y"" or null."
Interventions,ML,11.0,Interventions,ML,MLOCCUR,ML Occurrence,Char,C66742,,,,Record Qualifier,Perm,Used to record whether a prespecified meal occurred when information about the occurrence of a specific meal is solicited.
Interventions,ML,12.0,Interventions,ML,MLSTAT,Completion Status,Char,C66789,,,,Record Qualifier,Perm,"Used to indicate when a question about the occurrence of a prespecified meal was not answered. Should be null or have a value of ""NOT DONE""."
Interventions,ML,13.0,Interventions,ML,MLREASND,Reason Meal Not Collected,Char,,,,,Record Qualifier,Perm,"Describes the reason a response to a question about the occurrence of a meal was not collected. Used in conjunction with MLSTAT when value is ""NOT DONE""."
Interventions,ML,14.0,Interventions,ML,MLDOSE,Dose,Num,,,,,Record Qualifier,Perm,Amount of MLTRT consumed. Not populated when MLDOSTXT is populated.
Interventions,ML,15.0,Interventions,ML,MLDOSTXT,Dose Description,Char,,,,,Record Qualifier,Perm,"Amount description of MLTRT consumed, collected in text form. Not populated when MLDOSE is populated. Examples: ""<1 per day"", ""200-400""."
Interventions,ML,16.0,Interventions,ML,MLDOSU,Dose Units,Char,C71620,,,,Variable Qualifier,Perm,"Units for MLDOSE, MLDOSTOT, or MLDOSTXT."
Interventions,ML,17.0,Interventions,ML,MLDOSFRM,Dose Form,Char,C66726,,,,Variable Qualifier,Perm,"Dosage form for MLTRT. Example: ""BAR, CHEWABLE""."
Interventions,ML,18.0,Interventions,ML,VISITNUM,Visit Number,Num,,,,,Timing,Perm,"Clinical encounter number. Numeric version of VISIT, used for sorting."
Interventions,ML,19.0,Interventions,ML,VISIT,Visit Name,Char,,,,,Timing,Perm,Protocol-defined description of a clinical encounter.
Interventions,ML,20.0,Interventions,ML,VISITDY,Planned Study Day of Visit,Num,,,,,Timing,Perm,Planned study day of VISIT. Should be an integer.
Interventions,ML,21.0,Interventions,ML,TAETORD,Planned Order of Element within Arm,Num,,,,,Timing,Perm,Number that gives the planned order of the element within the arm for the element in which the meal started.
Interventions,ML,22.0,Interventions,ML,EPOCH,Epoch,Char,C99079,,,,Timing,Perm,Epoch associated with the start date/time of the meal.
Interventions,ML,23.0,Interventions,ML,MLDTC,Date/Time of Collection,Char,,,ISO 8601 datetime or interval,,Timing,Perm,Collection date and time of the meal represented in ISO 8601 character format.
Interventions,ML,24.0,Interventions,ML,MLSTDTC,Start Date/Time of Meal,Char,,,ISO 8601 datetime or interval,,Timing,Perm,Start date/time of the meal represented in ISO 8601 character format.
Interventions,ML,25.0,Interventions,ML,MLENDTC,End Date/Time of Meal,Char,,,ISO 8601 datetime or interval,,Timing,Perm,End date/time of the meal represented in ISO 8601 character format.
Interventions,ML,26.0,Interventions,ML,MLDY,Study Day of Visit/Collection/Exam,Num,,,,,Timing,Perm,Actual study day of the visit/collection expressed in integer days relative to the sponsor-defined RFSTDTC in Demographics.
Interventions,ML,27.0,Interventions,ML,MLSTDY,Study Day of Start of Meal,Num,,,,,Timing,Perm,Actual study day of start of the meal expressed in integer days relative to sponsor-defined RFSTDTC in Demographics.
Interventions,ML,28.0,Interventions,ML,MLENDY,Study Day of End of Meal,Num,,,,,Timing,Perm,Actual study day of end of the meal expressed in integer days relative to the sponsor-defined RFSTDTC in Demographics.
Interventions,ML,29.0,Interventions,ML,MLDUR,Duration of Meal,Char,,,ISO 8601 duration,,Timing,Perm,Collected duration of the meal represented in ISO 8601 character format. Used only if collected on the CRF and not derived.
Interventions,ML,30.0,Interventions,ML,MLTPT,Planned Time Point Name,Char,,,,,Timing,Perm,Text description of time when a measurement or observation should be taken as defined in the protocol. This may be represented as an elapsed time relative to a fixed reference point. See MLTPTNUM and MLTPTREF.
Interventions,ML,31.0,Interventions,ML,MLTPTNUM,Planned Time Point Number,Num,,,,,Timing,Perm,Numeric version of planned time point used in sorting.
Interventions,ML,32.0,Interventions,ML,MLELTM,Planned Elapsed Time from Time Point Ref,Char,,,ISO 8601 duration,,Timing,Perm,Planned elapsed time (in ISO 8601) relative to the planned fixed reference (MLTPTREF). This variable is useful when there are repetitive measures. Not a clock time or a date/time variable. Represented as an ISO 8601 duration.
Interventions,ML,33.0,Interventions,ML,MLTPTREF,Time Point Reference,Char,,,,,Timing,Perm,"Description of the fixed reference point referred to by MLELTM, MLTPTNUM, and MLTPT."
Interventions,ML,34.0,Interventions,ML,MLRFTDTC,Date/Time of Reference Time Point,Char,,,ISO 8601 datetime or interval,,Timing,Perm,Date/time for a fixed reference time point defined by MLTPTREF in ISO 8601 character format.
Interventions,ML,35.0,Interventions,ML,MIDS,Disease Milestone Instance Name,Char,,,,,Timing,Perm,The name of a specific instance of a disease milestone type (MIDSTYPE) described in the Trial Disease Milestones dataset. This should be unique within a subject. Used only in conjunction with RELMIDS and MIDSDTC.
Interventions,ML,36.0,Interventions,ML,RELMIDS,Temporal Relation to Milestone Instance,Char,,,,,Timing,Perm,"The temporal relationship of the observation to the disease milestone instance name in MIDS. Examples: ""IMMEDIATELY BEFORE"", ""AT TIME OF"", ""AFTER""."
Interventions,ML,37.0,Interventions,ML,MIDSDTC,Disease Milestone Instance Date/Time,Char,,,ISO 8601 datetime or interval,,Timing,Perm,"The start date/time of the disease milestone instance name in MIDS, in ISO 8601 format."
Interventions,PR,1.0,Interventions,PR,STUDYID,Study Identifier,Char,,,,,Identifier,Req,Unique identifier for a study.
Interventions,PR,2.0,Interventions,PR,DOMAIN,Domain Abbreviation,Char,,,,PR,Identifier,Req,Two-character abbreviation for the domain.
Interventions,PR,3.0,Interventions,PR,USUBJID,Unique Subject Identifier,Char,,,,,Identifier,Req,Identifier used to uniquely identify a subject across all studies for all applications or submissions involving the product.
Interventions,PR,4.0,Interventions,PR,PRSEQ,Sequence Number,Num,,,,,Identifier,Req,Sequence number given to ensure uniqueness of subject records within a domain. May be any valid number.
Interventions,PR,5.0,Interventions,PR,PRGRPID,Group ID,Char,,,,,Identifier,Perm,Used to link together a block of related records within a subject in a domain.
Interventions,PR,6.0,Interventions,PR,PRSPID,Sponsor-Defined Identifier,Char,,,,,Identifier,Perm,"Sponsor-defined identifier. Example: preprinted line identifier on a CRF, record identifier defined in the sponsor's operational database."
Interventions,PR,7.0,Interventions,PR,PRLNKID,Link ID,Char,,,,,Identifier,Perm,Used to facilitate identification of relationships between records.
Interventions,PR,8.0,Interventions,PR,PRLNKGRP,Link Group ID,Char,,,,,Identifier,Perm,Used to facilitate identification of relationships between records.
Interventions,PR,9.0,Interventions,PR,PRTRT,Reported Name of Procedure,Char,,,,,Topic,Req,"Name of procedure performed, either preprinted or collected on a CRF."
Interventions,PR,10.0,Interventions,PR,PRDECOD,Standardized Procedure Name,Char,C101858,,,,Synonym Qualifier,Perm,"Standardized or dictionary-derived name of PRTRT. If the codelist ""PROCEDUR"" is not used, the sponsor is expected to provide the dictionary name and version used to map the terms in the external codelist element in the Define-XML document. If an intervention term does not have a decode value, then PRDECOD will be null."
Interventions,PR,11.0,Interventions,PR,PRCAT,Category,Char,,,,,Grouping Qualifier,Perm,Used to define a category of procedure values.
Interventions,PR,12.0,Interventions,PR,PRSCAT,Subcategory,Char,,,,,Grouping Qualifier,Perm,Used to define a further categorization of PRCAT values.
Interventions,PR,13.0,Interventions,PR,PRPRESP,Pre-specified,Char,C66742,,,,Variable Qualifier,Perm,"Used when a specific procedure is pre-specified on a CRF. Values should be ""Y"" or null."
Interventions,PR,14.0,Interventions,PR,PROCCUR,Occurrence,Char,C66742,,,,Record Qualifier,Perm,Used to record whether a prespecified procedure occurred when information about the occurrence of a specific procedure is solicited.
Interventions,PR,15.0,Interventions,PR,PRINDC,Indication,Char,,,,,Record Qualifier,Perm,"Denotes the indication for the procedure (e.g., why the procedure was performed)."
Interventions,PR,16.0,Interventions,PR,PRDOSE,Dose,Num,,,,,Record Qualifier,Perm,Amount of PRTRT administered. Not populated when PRDOSTXT is populated.
Interventions,PR,17.0,Interventions,PR,PRDOSTXT,Dose Description,Char,,,,,Record Qualifier,Perm,"Dosing information collected in text form. Examples: ""<1"", ""200-400"". Not populated when PRDOSE is populated."
Interventions,PR,18.0,Interventions,PR,PRDOSU,Dose Units,Char,C71620,,,,Variable Qualifier,Perm,"Units for PRDOSE, PRDOSTOT, or PRDOSTXT."
Interventions,PR,19.0,Interventions,PR,PRDOSFRM,Dose Form,Char,C66726,,,,Variable Qualifier,Perm,Dose form for PRTRT.
Interventions,PR,20.0,Interventions,PR,PRDOSFRQ,Dosing Frequency per Interval,Char,C71113,,,,Record Qualifier,Perm,Usually expressed as the number of doses given per a specific interval.
Interventions,PR,21.0,Interventions,PR,PRDOSRGM,Intended Dose Regimen,Char,,,,,Record Qualifier,Perm,Text description of the intended schedule or regimen for the procedure.
Interventions,PR,22.0,Interventions,PR,PRROUTE,Route of Administration,Char,C66729,,,,Variable Qualifier,Perm,Route of administration for PRTRT.
Interventions,PR,23.0,Interventions,PR,PRLOC,Location of Procedure,Char,C74456,,,,Record Qualifier,Perm,Anatomical location of a procedure.
Interventions,PR,24.0,Interventions,PR,PRLAT,Laterality,Char,C99073,,,,Variable Qualifier,Perm,Qualifier for anatomical location or specimen further detailing laterality.
Interventions,PR,25.0,Interventions,PR,PRDIR,Directionality,Char,C99074,,,,Variable Qualifier,Perm,Qualifier for anatomical location or specimen further detailing directionality.
Interventions,PR,26.0,Interventions,PR,PRPORTOT,Portion or Totality,Char,C99075,,,,Variable Qualifier,Perm,"Qualifier for anatomical location or specimen further detailing the distribution, which means arrangement of, apportioning of."
Interventions,PR,27.0,Interventions,PR,VISITNUM,Visit Number,Num,,,,,Timing,Perm,"Clinical encounter number. Numeric version of VISIT, used for sorting."
Interventions,PR,28.0,Interventions,PR,VISIT,Visit Name,Char,,,,,Timing,Perm,Protocol-defined description of a clinical encounter.
Interventions,PR,29.0,Interventions,PR,VISITDY,Planned Study Day of Visit,Num,,,,,Timing,Perm,Planned study day of VISIT. Should be an integer.
Interventions,PR,30.0,Interventions,PR,TAETORD,Planned Order of Element within Arm,Num,,,,,Timing,Perm,Number that gives the planned order of the element within the arm.
Interventions,PR,31.0,Interventions,PR,EPOCH,Epoch,Char,C99079,,,,Timing,Perm,Epoch associated with the start date/time of the procedure.
Interventions,PR,32.0,Interventions,PR,PRSTDTC,Start Date/Time of Procedure,Char,,,ISO 8601 datetime or interval,,Timing,Exp,Start date/time of the procedure represented in ISO 8601 character format.
Interventions,PR,33.0,Interventions,PR,PRENDTC,End Date/Time of Procedure,Char,,,ISO 8601 datetime or interval,,Timing,Perm,End date/time of the procedure represented in ISO 8601 character format.
Interventions,PR,34.0,Interventions,PR,PRSTDY,Study Day of Start of Procedure,Num,,,,,Timing,Perm,Study day of start of procedure expressed in integer days relative to the sponsor-defined RFSTDTC in Demographics.
Interventions,PR,35.0,Interventions,PR,PRENDY,Study Day of End of Procedure,Num,,,,,Timing,Perm,Study day of end of procedure expressed in integer days relative to the sponsor-defined RFSTDTC in Demographics.
Interventions,PR,36.0,Interventions,PR,PRDUR,Duration of Procedure,Char,,,ISO 8601 duration,,Timing,Perm,Collected duration of a procedure represented in ISO 8601 character format. Used only if collected on the CRF and not derived from start and end date/times.
Interventions,PR,37.0,Interventions,PR,PRTPT,Planned Time Point Name,Char,,,,,Timing,Perm,"Text description of time when a procedure should be performed. This may be represented as an elapsed time relative to a fixed reference point, such as time of last dose. See PRTPTNUM and PRTPTREF."
Interventions,PR,38.0,Interventions,PR,PRTPTNUM,Planned Time Point Number,Num,,,,,Timing,Perm,Numerical version of planned time point used in sorting.
Interventions,PR,39.0,Interventions,PR,PRELTM,Planned Elapsed Time from Time Point Ref,Char,,,ISO 8601 duration,,Timing,Perm,"Planned elapsed time in ISO 8601 format relative to a planned fixed reference (PRTPTREF). This variable is useful where there are repetitive measures. Not a clock time or a date/time variable, but an interval, represented as ISO duration."
Interventions,PR,40.0,Interventions,PR,PRTPTREF,Time Point Reference,Char,,,,,Timing,Perm,"Description of the fixed reference point referred to by PRELTM, PRTPTNUM, and PRTPT."
Interventions,PR,41.0,Interventions,PR,PRRFTDTC,Date/Time of Reference Time Point,Char,,,ISO 8601 datetime or interval,,Timing,Perm,Date/time for a fixed reference time point defined by PRTRTREF in ISO 8601 character format.
Interventions,PR,42.0,Interventions,PR,PRSTRTPT,Start Relative to Reference Time Point,Char,C66728,,,,Timing,Perm,"Identifies the start of the observation as being before or after the sponsor-defined reference time point defined by variable PRSTTPT. \n Not all values of the codelist are allowable for this variable. See Section 4.4.7, Use of Relative Timing Variables."
Interventions,PR,43.0,Interventions,PR,PRSTTPT,Start Reference Time Point,Char,,,,,Timing,Perm,"Description or date/time in ISO 8601 character format of the sponsor-defined reference point referred to by PRSTRTPT. Examples: ""2003-12-15"", ""VISIT 1""."
Interventions,PR,44.0,Interventions,PR,PRENRTPT,End Relative to Reference Time Point,Char,C66728,,,,Timing,Perm,"Identifies the end of the observation as being before or after the sponsor-defined reference time point defined by variable PRENTPT. \n Not all values of the codelist are allowable for this variable. See Section 4.4.7, Use of Relative Timing Variables."
Interventions,PR,45.0,Interventions,PR,PRENTPT,End Reference Time Point,Char,,,,,Timing,Perm,"Description or date/time in ISO 8601 character format of the sponsor-defined reference point referred to by PRENRTPT. Examples: ""2003-12-25"", ""VISIT 2""."
Interventions,SU,1.0,Interventions,SU,STUDYID,Study Identifier,Char,,,,,Identifier,Req,Unique identifier for a study.
Interventions,SU,2.0,Interventions,SU,DOMAIN,Domain Abbreviation,Char,,,,SU,Identifier,Req,Two-character abbreviation for the domain.
Interventions,SU,3.0,Interventions,SU,USUBJID,Unique Subject Identifier,Char,,,,,Identifier,Req,Identifier used to uniquely identify a subject across all studies for all applications or submissions involving the product.
Interventions,SU,4.0,Interventions,SU,SUSEQ,Sequence Number,Num,,,,,Identifier,Req,Sequence number given to ensure uniqueness of subject records within a domain. May be any valid number.
Interventions,SU,5.0,Interventions,SU,SUGRPID,Group ID,Char,,,,,Identifier,Perm,Used to tie together a block of related records in a single domain for a subject.
Interventions,SU,6.0,Interventions,SU,SUSPID,Sponsor-Defined Identifier,Char,,,,,Identifier,Perm,Sponsor-defined reference number. May be preprinted on the CRF as an explicit line identifier or defined in the sponsor's operational database. Example: Line number on a Tobacco & Alcohol Use CRF page.
Interventions,SU,7.0,Interventions,SU,SUTRT,Reported Name of Substance,Char,,,,,Topic,Req,"Substance name. Examples: ""CIGARETTES"", ""COFFEE""."
Interventions,SU,8.0,Interventions,SU,SUMODIFY,Modified Substance Name,Char,,,,,Synonym Qualifier,Perm,"If SUTRT is modified, then the modified text is placed here."
Interventions,SU,9.0,Interventions,SU,SUDECOD,Standardized Substance Name,Char,,,,,Synonym Qualifier,Perm,Standardized or dictionary-derived text description of SUTRT or SUMODIFY if the sponsor chooses to code the substance use. The sponsor is expected to provide the dictionary name and version used to map the terms utilizing the external codelist element in the Define-XML document.
Interventions,SU,10.0,Interventions,SU,SUCAT,Category for Substance Use,Char,,,,,Grouping Qualifier,Perm,"Used to define a category of related records. Examples: ""TOBACCO"", ""ALCOHOL"", or ""CAFFEINE""."
Interventions,SU,11.0,Interventions,SU,SUSCAT,Subcategory for Substance Use,Char,,,,,Grouping Qualifier,Perm,"A further categorization of substance use. Examples: ""CIGARS"", ""CIGARETTES"", ""BEER"", ""WINE""."
Interventions,SU,12.0,Interventions,SU,SUPRESP,SU Pre-Specified,Char,C66742,,,,Variable Qualifier,Perm,"Used to indicate whether (""Y""/null) information about the use of a specific substance was solicited on the CRF."
Interventions,SU,13.0,Interventions,SU,SUOCCUR,SU Occurrence,Char,C66742,,,,Record Qualifier,Perm,"When the use of specific substances is solicited, SUOCCUR is used to indicate whether (""Y""/""N"") a particular prespecified substance was used. Values are null for substances not specifically solicited."
Interventions,SU,14.0,Interventions,SU,SUSTAT,Completion Status,Char,C66789,,,,Record Qualifier,Perm,"When the use of prespecified substances is solicited, the completion status indicates that there was no response to the question about the prespecified substance. When there is no prespecified list on the CRF, then the completion status indicates that substance use was not assessed for the subject."
Interventions,SU,15.0,Interventions,SU,SUREASND,Reason Substance Use Not Collected,Char,,,,,Record Qualifier,Perm,"Describes the reason substance use was not collected. Used in conjunction with SUSTAT when value of SUSTAT is ""NOT DONE""."
Interventions,SU,16.0,Interventions,SU,SUCLAS,Substance Use Class,Char,,,,,Variable Qualifier,Perm,"Substance use class. May be obtained from coding. When coding to a single class, populate with class value. If using a dictionary and coding to multiple classes, then follow Section 4.2.8.3, Multiple Values for a Non-result Qualifier Variable, or omit SUCLAS."
Interventions,SU,17.0,Interventions,SU,SUCLASCD,Substance Use Class Code,Char,,,,,Variable Qualifier,Perm,Code corresponding to SUCLAS. May be obtained from coding.
Interventions,SU,18.0,Interventions,SU,SUDOSE,Substance Use Consumption,Num,,,,,Record Qualifier,Perm,Amount of SUTRT consumed. Not populated if SUDOSTXT is populated.
Interventions,SU,19.0,Interventions,SU,SUDOSTXT,Substance Use Consumption Text,Char,,,,,Record Qualifier,Perm,Substance use consumption amounts or a range of consumption information collected in text form. Not populated if SUDOSE is populated.
Interventions,SU,20.0,Interventions,SU,SUDOSU,Consumption Units,Char,C71620,,,,Variable Qualifier,Perm,"Units for SUDOSE, SUDOSTOT, or SUDOSTXT. Examples: ""oz"", ""CIGARETTE"", ""PACK"", ""g""."
Interventions,SU,21.0,Interventions,SU,SUDOSFRM,Dose Form,Char,C66726,,,,Variable Qualifier,Perm,"Dose form for SUTRT. Examples: ""INJECTABLE"", ""LIQUID"", ""POWDER""."
Interventions,SU,22.0,Interventions,SU,SUDOSFRQ,Use Frequency Per Interval,Char,C71113,,,,Variable Qualifier,Perm,"Usually expressed as the number of repeated administrations of SUDOSE within a specific time period. Example: ""Q24H"" (every day)."
Interventions,SU,23.0,Interventions,SU,SUDOSTOT,Total Daily Consumption,Num,,,,,Record Qualifier,Perm,"Total daily use of SUTRT using the units in SUDOSU. Used when dosing is collected as total daily dose. If a sponsor needs to aggregate the data over a period other than daily, then the aggregated total could be recorded in a supplemental qualifier variable."
Interventions,SU,24.0,Interventions,SU,SUROUTE,Route of Administration,Char,C66729,,,,Variable Qualifier,Perm,"Route of administration for SUTRT. Examples: ""ORAL"", ""INTRAVENOUS""."
Interventions,SU,25.0,Interventions,SU,TAETORD,Planned Order of Element within Arm,Num,,,,,Timing,Perm,Number that gives the planned order of the element within the arm for the element in which the substance use started. Null for substances that started before study participation.
Interventions,SU,26.0,Interventions,SU,EPOCH,Epoch,Char,C99079,,,,Timing,Perm,Epoch associated with the start date/time of the substance use. Null for substances that started before study participation.
Interventions,SU,27.0,Interventions,SU,SUSTDTC,Start Date/Time of Substance Use,Char,,,ISO 8601 datetime or interval,,Timing,Perm,Start date/time of the substance use represented in ISO 8601 character format.
Interventions,SU,28.0,Interventions,SU,SUENDTC,End Date/Time of Substance Use,Char,,,ISO 8601 datetime or interval,,Timing,Perm,End date/time of the substance use represented in ISO 8601 character format.
Interventions,SU,29.0,Interventions,SU,SUSTDY,Study Day of Start of Substance Use,Num,,,,,Timing,Perm,Study day of start of substance use relative to the sponsor-defined RFSTDTC.
Interventions,SU,30.0,Interventions,SU,SUENDY,Study Day of End of Substance Use,Num,,,,,Timing,Perm,Study day of end of substance use relative to the sponsor-defined RFSTDTC.
Interventions,SU,31.0,Interventions,SU,SUDUR,Duration of Substance Use,Char,,,ISO 8601 duration,,Timing,Perm,Collected duration of substance use in ISO 8601 format. Used only if collected on the CRF and not derived from start and end date/times.
Interventions,SU,32.0,Interventions,SU,SUSTRF,Start Relative to Reference Period,Char,C66728,,,,Timing,Perm,"Describes the start of the substance use relative to the sponsor-defined reference period. The sponsor-defined reference period is a continuous period of time defined by a discrete starting point and a discrete ending point (represented by RFSTDTC and RFENDTC in Demographics). If information such as ""PRIOR"" was collected, this information may be translated into SUSTRF. \n Not all values of the codelist are allowable for this variable. See Section 4.4.7, Use of Relative Timing Variables."
Interventions,SU,33.0,Interventions,SU,SUENRF,End Relative to Reference Period,Char,C66728,,,,Timing,Perm,"Describes the end of the substance use with relative to the sponsor-defined reference period. The sponsor-defined reference period is a continuous period of time defined by a discrete starting point and a discrete ending point (represented by RFSTDTC and RFENDTC in Demographics). If information such as ""PRIOR"", ""ONGOING"", or ""CONTINUING"" was collected, this information may be translated into SUENRF. \n Not all values of the codelist are allowable for this variable. See Section 4.4.7, Use of Relative Timing Variables."
Interventions,SU,34.0,Interventions,SU,SUSTRTPT,Start Relative to Reference Time Point,Char,C66728,,,,Timing,Perm,"Identifies the start of the substance as being before or after the reference time point defined by variable SUSTTPT. \n Not all values of the codelist are allowable for this variable. See Section 4.4.7 , Use of Relative Timing Variables."
Interventions,SU,35.0,Interventions,SU,SUSTTPT,Start Reference Time Point,Char,,,,,Timing,Perm,"Description or date/time in ISO 8601 character format of the reference point referred to by SUSTRTPT. Examples: ""2003-12-15"", ""VISIT 1""."
Interventions,SU,36.0,Interventions,SU,SUENRTPT,End Relative to Reference Time Point,Char,C66728,,,,Timing,Perm,"Identifies the end of the substance as being before or after the reference time point defined by variable SUENTPT. \n Not all values of the codelist are allowable for this variable. See Section 4.4.7 , Use of Relative Timing Variables."
Interventions,SU,37.0,Interventions,SU,SUENTPT,End Reference Time Point,Char,,,,,Timing,Perm,"Description or date/time in ISO 8601 character format of the reference point referred to by SUENRTPT. Examples: ""2003-12-25"", ""VISIT 2""."
Events,AE,1.0,Events,AE,STUDYID,Study Identifier,Char,,,,,Identifier,Req,Unique identifier for a study.
Events,AE,2.0,Events,AE,DOMAIN,Domain Abbreviation,Char,,,,AE,Identifier,Req,Two-character abbreviation for the domain.
Events,AE,3.0,Events,AE,USUBJID,Unique Subject Identifier,Char,,,,,Identifier,Req,Identifier used to uniquely identify a subject across all studies for all applications or submissions involving the product.
Events,AE,4.0,Events,AE,SPDEVID,Sponsor Device Identifier,Char,,,,,Identifier,Perm,A sequence of characters used by the sponsor to uniquely identify a specific device. Used to represent a device associated in some way with the adverse event. SPDEVID values are defined in the Device Identifiers (DI) domain.
Events,AE,5.0,Events,AE,AESEQ,Sequence Number,Num,,,,,Identifier,Req,Sequence number given to ensure uniqueness of subject records within a domain. May be any valid number.
Events,AE,6.0,Events,AE,AEGRPID,Group ID,Char,,,,,Identifier,Perm,Used to tie together a block of related records in a single domain for a subject.
Events,AE,7.0,Events,AE,AEREFID,Reference ID,Char,,,,,Identifier,Perm,Internal or external identifier such as a serial number on an SAE reporting form.
Events,AE,8.0,Events,AE,AESPID,Sponsor-Defined Identifier,Char,,,,,Identifier,Perm,Sponsor-defined identifier. It may be preprinted on the CRF as an explicit line identifier or defined in the sponsor's operational database. Example: Line number on an Adverse Events CRF page.
Events,AE,9.0,Events,AE,AETERM,Reported Term for the Adverse Event,Char,,,,,Topic,Req,Verbatim name of the event.
Events,AE,10.0,Events,AE,AEMODIFY,Modified Reported Term,Char,,,,,Synonym Qualifier,Perm,"If AETERM is modified to facilitate coding, then AEMODIFY will contain the modified text."
Events,AE,11.0,Events,AE,AELLT,Lowest Level Term,Char,,,MedDRA,,Variable Qualifier,Exp,Dictionary-derived text description of the lowest level term.
Events,AE,12.0,Events,AE,AELLTCD,Lowest Level Term Code,Num,,,MedDRA,,Variable Qualifier,Exp,Dictionary-derived code for the lowest level term.
Events,AE,13.0,Events,AE,AEDECOD,Dictionary-Derived Term,Char,,,MedDRA,,Synonym Qualifier,Req,Dictionary-derived text description of AETERM or AEMODIFY. Equivalent to the Preferred Term (PT in MedDRA). The sponsor is expected to provide the dictionary name and version used to map the terms utilizing the external codelist element in the Define-XML document.
Events,AE,14.0,Events,AE,AEPTCD,Preferred Term Code,Num,,,MedDRA,,Variable Qualifier,Exp,Dictionary-derived code for the preferred term.
Events,AE,15.0,Events,AE,AEHLT,High Level Term,Char,,,MedDRA,,Variable Qualifier,Exp,Dictionary-derived text description of the high level term for the primary system organ class (SOC).
Events,AE,16.0,Events,AE,AEHLTCD,High Level Term Code,Num,,,MedDRA,,Variable Qualifier,Exp,Dictionary-derived code for the high level term for the primary SOC.
Events,AE,17.0,Events,AE,AEHLGT,High Level Group Term,Char,,,MedDRA,,Variable Qualifier,Exp,Dictionary-derived text description of the high level group term for the primary SOC.
Events,AE,18.0,Events,AE,AEHLGTCD,High Level Group Term Code,Num,,,MedDRA,,Variable Qualifier,Exp,Dictionary-derived code for the high level group term for the primary SOC.
Events,AE,19.0,Events,AE,AECAT,Category for Adverse Event,Char,,,,,Grouping Qualifier,Perm,"Used to define a category of related records. Examples: ""BLEEDING"", ""NEUROPSYCHIATRIC""."
Events,AE,20.0,Events,AE,AESCAT,Subcategory for Adverse Event,Char,,,,,Grouping Qualifier,Perm,"A further categorization of adverse event. Example: ""NEUROLOGIC""."
Events,AE,21.0,Events,AE,AEPRESP,Pre-Specified Adverse Event,Char,C66742,,,,Variable Qualifier,Perm,"A value of ""Y"" indicates that this adverse event was prespecified on the CRF. Values are null for spontaneously reported events (i.e., those collected as free-text verbatim terms)."
Events,AE,22.0,Events,AE,AEBODSYS,Body System or Organ Class,Char,,,,,Record Qualifier,Exp,"Dictionary derived. Body system or organ class used by the sponsor from the coding dictionary (e.g., MedDRA). When using a multi-axial dictionary such as MedDRA, this should contain the SOC used for the sponsor's analyses and summary tables, which may not necessarily be the primary SOC."
Events,AE,23.0,Events,AE,AEBDSYCD,Body System or Organ Class Code,Num,,,MedDRA,,Variable Qualifier,Exp,"Dictionary derived. Code for the body system or organ class used by the sponsor. When using a multi-axial dictionary such as MedDRA, this should contain the SOC used for the sponsor's analyses and summary tables, which may not necessarily be the primary SOC."
Events,AE,24.0,Events,AE,AESOC,Primary System Organ Class,Char,,,MedDRA,,Variable Qualifier,Exp,Dictionary-derived text description of the primary SOC. Will be the same as AEBODSYS if the primary SOC was used for analysis.
Events,AE,25.0,Events,AE,AESOCCD,Primary System Organ Class Code,Num,,,MedDRA,,Variable Qualifier,Exp,Dictionary-derived code for the primary SOC. Will be the same as AEBDSYCD if the primary SOC was used for analysis.
Events,AE,26.0,Events,AE,AELOC,Location of Event,Char,C74456,,,,Record Qualifier,Perm,"Describes anatomical location relevant for the event (e.g., ""ARM"" for skin rash)."
Events,AE,27.0,Events,AE,AESEV,Severity/Intensity,Char,C66769,,,,Record Qualifier,Perm,"The severity or intensity of the event. Examples: ""MILD"", ""MODERATE"", ""SEVERE""."
Events,AE,28.0,Events,AE,AESER,Serious Event,Char,C66742,,,,Record Qualifier,Exp,"Is this a serious event? Valid values are ""Y"" and ""N""."
Events,AE,29.0,Events,AE,AEACN,Action Taken with Study Treatment,Char,C66767,,,,Record Qualifier,Exp,"Describes changes to the study treatment as a result of the event. AEACN is specifically for the relationship to study treatment. AEACNOTH is for actions unrelated to dose adjustments of study treatment. Examples of AEACN values include ICH E2B values: ""DRUG WITHDRAWN"", ""DOSE REDUCED"", ""DOSE INCREASED"", ""DOSE NOT CHANGED"", ""UNKNOWN"" and ""NOT APPLICABLE""."
Events,AE,30.0,Events,AE,AEACNOTH,Other Action Taken,Char,,,,,Record Qualifier,Perm,"Describes other actions taken as a result of the event that are unrelated to dose adjustments of study treatment. Usually reported as free text. Example: ""TREATMENT UNBLINDED. PRIMARY CARE PHYSICIAN NOTIFIED""."
Events,AE,31.0,Events,AE,AEACNDEV,Action Taken with Device,Char,C111110,,,,Record Qualifier,Perm,An action taken with a device as the result of the event. The device may or may not be a device under study.
Events,AE,32.0,Events,AE,AEREL,Causality,Char,,,,,Record Qualifier,Exp,"Records the investigator's opinion as to the causality of the event to the treatment. ICH does not establish any required or recommended terms for non-device relatedness. ICH E2A and E2B examples include (up-cased here for alignment to SDTM conventions) terms such as ""NOT RELATED"", ""UNLIKELY RELATED"", ""POSSIBLY RELATED"", ""RELATED"", but these example terms do not establish any conventions or expectations. Controlled terminology may be defined in the future. Check with regulatory authority for population of this variable."
Events,AE,33.0,Events,AE,AERLDEV,Relationship of Event to Device,Char,,,,,Record Qualifier,Perm,"A judgment as to the likelihood that the device caused the adverse event. The relationship is to a device identified in the data (i.e., has an SPDEVID). The device may be ancillary or under study. \n Terminology: \n * In the EU, follow the European Commission Guidelines on Medical Devices, Clinical Investigations: SAE Reporting (MEDDEV 2.7/3) (e.g., Not Related, Unlikely, Possible, Probable, Causal Relationship), with device-specific definitions. \n * No required Controlled Terminology in US."
Events,AE,34.0,Events,AE,AERELNST,Relationship to Non-Study Treatment,Char,,,,,Record Qualifier,Perm,"Records the investigator's opinion as to whether the event may have been due to a treatment other than study drug. May be reported as free text. Example: ""MORE LIKELY RELATED TO ASPIRIN USE""."
Events,AE,35.0,Events,AE,AEPATT,Pattern of Adverse Event,Char,,,,,Record Qualifier,Perm,"Used to indicate the pattern of the event over time. Examples: ""INTERMITTENT"", ""CONTINUOUS"", ""SINGLE EVENT""."
Events,AE,36.0,Events,AE,AEOUT,Outcome of Adverse Event,Char,C66768,,,,Record Qualifier,Perm,Description of the outcome of an event.
Events,AE,37.0,Events,AE,AESCAN,Involves Cancer,Char,C66742,,,,Record Qualifier,Perm,"Was the serious event associated with the development of cancer? Valid values are ""Y"" and ""N"". This is a legacy seriousness criterion. It is not included in ICH E2A or E2B."
Events,AE,38.0,Events,AE,AESCONG,Congenital Anomaly or Birth Defect,Char,C66742,,,,Record Qualifier,Perm,"Was the serious event associated with congenital anomaly or birth defect? Valid values are ""Y"" and ""N""."
Events,AE,39.0,Events,AE,AESDISAB,Persist or Signif Disability/Incapacity,Char,C66742,,,,Record Qualifier,Perm,"Did the serious event result in persistent or significant disability/incapacity? Valid values are ""Y"" and ""N""."
Events,AE,40.0,Events,AE,AESDTH,Results in Death,Char,C66742,,,,Record Qualifier,Perm,"Did the serious event result in death? Valid values are ""Y"" and ""N""."
Events,AE,41.0,Events,AE,AESHOSP,Requires or Prolongs Hospitalization,Char,C66742,,,,Record Qualifier,Perm,"Did the serious event require or prolong hospitalization? Valid values are ""Y"" and ""N""."
Events,AE,42.0,Events,AE,AESLIFE,Is Life Threatening,Char,C66742,,,,Record Qualifier,Perm,"Was the serious event life-threatening? Valid values are ""Y"" and ""N""."
Events,AE,43.0,Events,AE,AESOD,Occurred with Overdose,Char,C66742,,,,Record Qualifier,Perm,"Did the serious event occur with an overdose? Valid values are ""Y"" and ""N"". This is a legacy seriousness criterion. It is not included in ICH E2A or E2B."
Events,AE,44.0,Events,AE,AESMIE,Other Medically Important Serious Event,Char,C66742,,,,Record Qualifier,Perm,"Do additional categories for seriousness apply? Valid values are ""Y"" and ""N""."
Events,AE,45.0,Events,AE,AESINTV,Needs Intervention to Prevent Impairment,Char,C66742,,,,Record Qualifier,Perm,"Records whether medical or surgical intervention was necessary to preclude permanent impairment of a body function, or to prevent permanent damage to a body structure, with either situation suspected to be due to the use of a medical product. This variable is used in conjunction with the other ""seriousness"" variables (e.g., fatal, life-threatening). It is part of the US federal government definition of a serious adverse event; see 21 CFR Part 803.3(w)(3)."
Events,AE,46.0,Events,AE,AEUNANT,Unanticipated Adverse Device Effect,Char,C66742,,,,Record Qualifier,Perm,"Any serious adverse effect on health or safety or any life-threatening problem or death caused by or associated with a device, if that effect, problem, or death was not previously identified in nature, severity, or degree of incidence in the investigational plan or application (including a supplementary plan or application), \n or \n any other unanticipated serious problem associated with a device that relates to the rights, safety, or welfare of subjects. (21 CFR Part 812.3(s)). \n This variable applies only to serious AEs and should hold collected data; if the value is derived, it should be held in ADaM."
Events,AE,47.0,Events,AE,AERLPRT,Rel of AE to Non-Dev-Rel Study Activity,Char,,,,,Record Qualifier,Perm,"The investigator's opinion as to the causality of the event as related to other protocol-required activities, actions, or assessments (e.g., medication changes, tests/assessments, other procedures). The relationship is to a protocol-specified, non-device-related activity where the device is identified in the data (i.e., has an SPDEVID). The device may be ancillary or under study. \n Terminology: \n * In the EU, follow the European Commission Guidelines on Medical Devices, Clinical Investigations: SAE Reporting (MEDDEV 2.7/3) (e.g., Not Related, Unlikely, Possible, Probable, Causal Relationship), with device-specific definitions. \n * No required Controlled Terminology in US."
Events,AE,48.0,Events,AE,AERLPRC,Rel of AE to Device-Related Procedure,Char,,,,,Record Qualifier,Perm,"The investigator's opinion as to the likelihood that the device-related study procedure (e.g., implant/insertion, revision/adjustment, explant/removal) caused the AE. The relationship is to a device-related procedure where the device is identified in the data (i.e., has an SPDEVID). The device may be ancillary or under study. \n Terminology: \n * In the EU, follow the European Commission Guidelines on Medical Devices, Clinical Investigations: SAE Reporting (MEDDEV 2.7/3) (e.g., Not Related, Unlikely, Possible, Probable, Causal Relationship), with device-specific definitions. \n * No required Controlled Terminology in US."
Events,AE,49.0,Events,AE,AECONTRT,Concomitant or Additional Trtmnt Given,Char,C66742,,,,Record Qualifier,Perm,"Was another treatment given because of the occurrence of the event? Valid values are ""Y"" and ""N""."
Events,AE,50.0,Events,AE,AETOXGR,Standard Toxicity Grade,Char,,,,,Record Qualifier,Perm,"Toxicity grade according to a standard toxicity scale (e.g., Common Terminology Criteria for Adverse Events, CTCAE). Sponsors should specify the name of the scale and version used in the metadata (see assumption 7d). If value is from a numeric scale, represent only the number (e.g., ""2"", not ""Grade 2"")."
Events,AE,51.0,Events,AE,TAETORD,Planned Order of Element within Arm,Num,,,,,Timing,Perm,Number that gives the planned order of the element within the arm.
Events,AE,52.0,Events,AE,EPOCH,Epoch,Char,C99079,,,,Timing,Perm,"Epoch associated with the start date/time of the adverse event. Examples: ""SCREENING"", ""TREATMENT"", ""FOLLOW-UP""."
Events,AE,53.0,Events,AE,AESTDTC,Start Date/Time of Adverse Event,Char,,,ISO 8601 datetime or interval,,Timing,Exp,Start date/time of the adverse event represented in ISO 8601 character format.
Events,AE,54.0,Events,AE,AEENDTC,End Date/Time of Adverse Event,Char,,,ISO 8601 datetime or interval,,Timing,Exp,End date/time of the adverse event represented in ISO 8601 character format.
Events,AE,55.0,Events,AE,AESTDY,Study Day of Start of Adverse Event,Num,,,,,Timing,Perm,Study day of start of adverse event relative to the sponsor-defined RFSTDTC.
Events,AE,56.0,Events,AE,AEENDY,Study Day of End of Adverse Event,Num,,,,,Timing,Perm,Study day of end of event relative to the sponsor-defined RFSTDTC.
Events,AE,57.0,Events,AE,AEDUR,Duration of Adverse Event,Char,,,ISO 8601 duration,,Timing,Perm,"Collected duration and unit of an adverse event. Used only if collected on the CRF and not derived from start and end date/times. Example: ""P1DT2H"" (for 1 day, 2 hours)."
Events,AE,58.0,Events,AE,AEENRF,End Relative to Reference Period,Char,C66728,,,,Timing,Perm,"Describes the end of the event relative to the sponsor-defined reference period. The sponsor-defined reference period is a continuous period of time defined by a discrete starting point (RFSTDTC) and a discrete ending point (RFENDTC) of the trial. \n Not all values of the codelist are allowable for this variable. See Section 4.4.7, Use of Relative Timing Variables."
Events,AE,59.0,Events,AE,AEENRTPT,End Relative to Reference Time Point,Char,C66728,,,,Timing,Perm,"Identifies the end of the event as being before or after the reference time point defined by variable AEENTPT. \n Not all values of the codelist are allowable for this variable. See Section 4.4.7, Use of Relative Timing Variables."
Events,AE,60.0,Events,AE,AEENTPT,End Reference Time Point,Char,,,,,Timing,Perm,"Description of date/time in ISO 8601 character format of the reference point referred to by AEENRTPT. Examples: ""2003-12-25"", ""VISIT 2""."
Events,BE,1.0,Events,BE,STUDYID,Study Identifier,Char,,,,,Identifier,Req,Unique identifier for a study.
Events,BE,2.0,Events,BE,DOMAIN,Domain Abbreviation,Char,,,,BE,Identifier,Req,Two-character abbreviation for the domain.
Events,BE,3.0,Events,BE,USUBJID,Unique Subject Identifier,Char,,,,,Identifier,Req,Identifier used to uniquely identify a subject across all studies for all applications or submissions involving the product.
Events,BE,4.0,Events,BE,SPDEVID,Sponsor Device Identifier,Char,,,,,Identifier,Perm,Sponsor-defined identifier for a device.
Events,BE,5.0,Events,BE,BESEQ,Sequence Number,Num,,,,,Identifier,Req,Sequence number to ensure uniqueness of records within a dataset for a subject. May be any valid number (including decimals) and does not have to start at 1.
Events,BE,6.0,Events,BE,BEGRPID,Group ID,Char,,,,,Identifier,Perm,"Optional group identifier, used to link together a block of related records within a subject in a domain."
Events,BE,7.0,Events,BE,BEREFID,Reference ID,Char,,,,,Identifier,Exp,Internal or external identifier for the specimen affected or created by the event.
Events,BE,8.0,Events,BE,BESPID,Sponsor-Defined Identifier,Char,,,,,Identifier,Perm,Optional sponsor-defined reference number. Example: Line number on a CRF page.
Events,BE,9.0,Events,BE,BETERM,Reported Term for the Biospecimen Event,Char,,,,,Topic,Req,"Topic variable for an event observation, which is the verbatim or pre-specified name of the event."
Events,BE,10.0,Events,BE,BEMODIFY,Modified Reported Term,Char,,,,,Synonym Qualifier,Perm,"If the value for BETERM is modified for coding purposes, then the modified text is placed here."
Events,BE,11.0,Events,BE,BEDECOD,Dictionary-Derived Term,Char,C124297,,,,Synonym Qualifier,Perm,"Dictionary-derived text description of BETERM or BEMODIFY, if applicable."
Events,BE,12.0,Events,BE,BECAT,Category for Biospecimen Event,Char,,,,,Grouping Qualifier,Perm,"Used to define a category of topic-variable values. Example: COLLECTION, PREPARATION, TRANSPORT."
Events,BE,13.0,Events,BE,BESCAT,Subcategory for Biospecimen Event,Char,,,,,Grouping Qualifier,Perm,A further categorization of BECAT values.
Events,BE,14.0,Events,BE,BELOC,Anatomical Location of Event,Char,C74456,,,,Record Qualifier,Perm,"Describes the anatomical location relevant for the event (e.g. BRAIN, LUNG)."
Events,BE,15.0,Events,BE,BEPARTY,Accountable Party,Char,,,,,Record Qualifier,Perm,"Party accountable for the transferable object (e.g. specimen) as a result of the activity performed in the associated BETERM variable. The party could be an individual (e.g., subject), an organization (e.g., sponsor), or a location that is a proxy for an individual or organization (e.g., site). It is usually a somewhat general term that is further identified in the BEPRTYID variable."
Events,BE,16.0,Events,BE,BEPRTYID,Identification of Accountable Party,Char,,,,,Record Qualifier,Perm,Identification of the specific party accountable for the transferable object (e.g. Specimen) after the action in BETERM is taken. Used in conjunction with BEPARTY.
Events,BE,17.0,Events,BE,VISITNUM,Visit Number,Num,,,,,Timing,Exp,"Clinical encounter number. Numeric version of VISIT, used for sorting."
Events,BE,18.0,Events,BE,VISIT,Visit Name,Char,,,,,Timing,Perm,Protocol-defined description of clinical encounter.
Events,BE,19.0,Events,BE,VISITDY,Planned Study Day of Visit,Num,,,,,Timing,Perm,Planned study day of VISIT. Should be an integer.
Events,BE,20.0,Events,BE,BEDTC,Date/Time of Specimen Collection,Char,,,ISO 8601 datetime or interval,,Timing,Exp,Date and time of specimen collection.
Events,BE,21.0,Events,BE,BESTDTC,Start Date/Time of Biospecimen Event,Char,,,ISO 8601 datetime or interval,,Timing,Exp,Start date/time of the event.
Events,BE,22.0,Events,BE,BEENDTC,End Date/Time of Biospecimen Event,Char,,,ISO 8601 datetime or interval,,Timing,Exp,End date/time of the event.
Events,BE,23.0,Events,BE,BESTDY,Study Day of Start of Biospecimen Event,Num,,,,,Timing,Perm,Actual study day of start of observation expressed in integer days relative to the sponsor-defined RFSTDTC in Demographics.
Events,BE,24.0,Events,BE,BEENDY,Study Day of End of Biospecimen Event,Num,,,,,Timing,Perm,Actual study day of end of observation expressed in integer days relative to the sponsor-defined RFSTDTC in Demographics.
Events,BE,25.0,Events,BE,BEDUR,Duration of Biospecimen Event,Char,,,ISO 8601 duration,,Timing,Perm,"Collected duration and unit of a biospecimen event. Used only if collected on the CRF and not derived from start and end date/times. Example: P1DT2H (for 1 day, 2 hours)."
Events,CE,1.0,Events,CE,STUDYID,Study Identifier,Char,,,,,Identifier,Req,Unique identifier for a study.
Events,CE,2.0,Events,CE,DOMAIN,Domain Abbreviation,Char,,,,CE,Identifier,Req,Two-character abbreviation for the domain.
Events,CE,3.0,Events,CE,USUBJID,Unique Subject Identifier,Char,,,,,Identifier,Req,Identifier used to uniquely identify a subject across all studies for all applications or submissions involving the product.
Events,CE,4.0,Events,CE,CESEQ,Sequence Number,Num,,,,,Identifier,Req,Sequence number given to ensure uniqueness of subject records within a domain. May be any valid number.
Events,CE,5.0,Events,CE,CEGRPID,Group ID,Char,,,,,Identifier,Perm,Used to link together a block of related records for a subject within a domain.
Events,CE,6.0,Events,CE,CEREFID,Reference ID,Char,,,,,Identifier,Perm,"Internal or external identifier (e.g., lab specimen ID, UUID for an ECG waveform or medical image)."
Events,CE,7.0,Events,CE,CESPID,Sponsor-Defined Identifier,Char,,,,,Identifier,Perm,Sponsor-defined identifier.
Events,CE,8.0,Events,CE,CETERM,Reported Term for the Clinical Event,Char,,,,,Topic,Req,Term for the medical condition or event. Most likely preprinted on CRF.
Events,CE,9.0,Events,CE,CEDECOD,Dictionary-Derived Term,Char,,,,,Synonym Qualifier,Perm,Controlled terminology for the name of the clinical event. The sponsor is expected to provide the dictionary name and version used to map the terms utilizing the external codelist element in the Define-XML document.
Events,CE,10.0,Events,CE,CECAT,Category for the Clinical Event,Char,,,,,Grouping Qualifier,Perm,Used to define a category of related records.
Events,CE,11.0,Events,CE,CESCAT,Subcategory for the Clinical Event,Char,,,,,Grouping Qualifier,Perm,A further categorization of the condition or event.
Events,CE,12.0,Events,CE,CEPRESP,Clinical Event Pre-specified,Char,C66742,,,,Variable Qualifier,Perm,"Used to indicate whether the event in CETERM was prespecified. Value is ""Y"" for prespecified events and null for spontaneously reported events."
Events,CE,13.0,Events,CE,CEOCCUR,Clinical Event Occurrence,Char,C66742,,,,Record Qualifier,Perm,"Used when the occurrence of specific events is solicited, to indicate whether or not a clinical event occurred. Values are null for spontaneously reported events."
Events,CE,14.0,Events,CE,CESTAT,Completion Status,Char,C66789,,,,Record Qualifier,Perm,The status indicates that a question from a prespecified list was not answered.
Events,CE,15.0,Events,CE,CEREASND,Reason Clinical Event Not Collected,Char,,,,,Record Qualifier,Perm,"Describes the reason clinical event data was not collected. Used in conjunction with CESTAT when value is ""NOT DONE""."
Events,CE,16.0,Events,CE,CEBODSYS,Body System or Organ Class,Char,,,,,Record Qualifier,Perm,"Dictionary-derived. Body system or organ class that is involved in an event or measurement from a standard hierarchy (e.g., MedDRA). When using a multi-axial dictionary such as MedDRA, this should contain the SOC used for the sponsor's analyses and summary tables, which may not necessarily be the primary SOC."
Events,CE,17.0,Events,CE,CESEV,Severity/Intensity,Char,C165643,,,,Record Qualifier,Perm,"The severity or intensity of the event. Examples: ""MILD"", ""MODERATE"", ""SEVERE""."
Events,CE,18.0,Events,CE,CETOXGR,Standard Toxicity Grade,Char,,,,,Record Qualifier,Perm,"Toxicity grade according to a standard toxicity scale (e.g., Common Terminology Criteria for Adverse Events (CTCAE) v3.0). Sponsor should specify name of the scale and version used in the metadata. If value is from a numeric scale, represent only the number (e.g., ""2"", not ""Grade 2"")."
Events,CE,19.0,Events,CE,TAETORD,Planned Order of Element within Arm,Num,,,,,Timing,Perm,Number that gives the planned order of the element within the arm for the element in which the clinical event started.
Events,CE,20.0,Events,CE,EPOCH,Epoch,Char,C99079,,,,Timing,Perm,Epoch associated with the start date/time of the clinical event.
Events,CE,21.0,Events,CE,CEDTC,Date/Time of Event Collection,Char,,,ISO 8601 datetime or interval,,Timing,Perm,Collection date and time for the clinical event observation represented in ISO 8601 character format.
Events,CE,22.0,Events,CE,CESTDTC,Start Date/Time of Clinical Event,Char,,,ISO 8601 datetime or interval,,Timing,Perm,Start date/time of the clinical event represented in ISO 8601 character format.
Events,CE,23.0,Events,CE,CEENDTC,End Date/Time of Clinical Event,Char,,,ISO 8601 datetime or interval,,Timing,Perm,"End date/time of the clinical event, represented in ISO 8601 character format."
Events,CE,24.0,Events,CE,CEDY,Study Day of Event Collection,Num,,,,,Timing,Perm,"Study day of clinical event collection, measured as integer days. Algorithm for calculations must be relative to the sponsor-defined RFSTDTC variable in Demographics. This formula should be consistent across the submission."
Events,CE,25.0,Events,CE,CESTDY,Study Day of Start of Event,Num,,,,,Timing,Perm,Actual study day of start of the clinical event expressed in integer days relative to the sponsor-defined RFSTDTC in Demographics.
Events,CE,26.0,Events,CE,CEENDY,Study Day of End of Event,Num,,,,,Timing,Perm,Actual study day of end of the clinical event expressed in integer days relative to the sponsor-defined RFSTDTC in Demographics.
Events,CE,27.0,Events,CE,CESTRF,Start Relative to Reference Period,Char,C66728,,,,Timing,Perm,"Describes the start of the clinical event relative to the sponsor-defined reference period. The sponsor-defined reference period is a continuous period of time defined by a discrete starting point and a discrete ending point (represented by RFSTDTC and RFENDTC in Demographics). \n Not all values of the codelist are allowable for this variable. See Section 4.4.7, Use of Relative Timing Variables."
Events,CE,28.0,Events,CE,CEENRF,End Relative to Reference Period,Char,C66728,,,,Timing,Perm,"Describes the end of the event relative to the sponsor-defined reference period. The sponsor-defined reference period is a continuous period of time defined by a discrete starting point and a discrete ending point (represented by RFSTDTC and RFENDTC in Demographics). \n Not all values of the codelist are allowable for this variable. See Section 4.4.7, Use of Relative Timing Variables."
Events,CE,29.0,Events,CE,CESTRTPT,Start Relative to Reference Time Point,Char,C66728,,,,Timing,Perm,"Identifies the start of the observation as being before or after the reference time point defined by variable CESTTPT. \n Not all values of the codelist are allowable for this variable. See Section 4.4.7, Use of Relative Timing Variables."
Events,CE,30.0,Events,CE,CESTTPT,Start Reference Time Point,Char,,,,,Timing,Perm,"Description or date/time in ISO 8601 character format of the sponsor-defined reference point referred to by --STRTPT. Examples: ""2003-12-15"", ""VISIT 1""."
Events,CE,31.0,Events,CE,CEENRTPT,End Relative to Reference Time Point,Char,C66728,,,,Timing,Perm,"Identifies the end of the observation as being before or after the sponsor-defined reference time point defined by variable CEENTPT. \n Not all values of the codelist are allowable for this variable. See Section 4.4.7, Use of Relative Timing Variables."
Events,CE,32.0,Events,CE,CEENTPT,End Reference Time Point,Char,,,,,Timing,Perm,"Description or date/time in ISO 8601 character format of the reference point referred to by CEENRTPT. Examples: ""2003-12-25"", ""VISIT 2""."
Events,DS,1.0,Events,DS,STUDYID,Study Identifier,Char,,,,,Identifier,Req,Unique identifier for a study.
Events,DS,2.0,Events,DS,DOMAIN,Domain Abbreviation,Char,,,,DS,Identifier,Req,Two-character abbreviation for the domain.
Events,DS,3.0,Events,DS,USUBJID,Unique Subject Identifier,Char,,,,,Identifier,Req,Identifier used to uniquely identify a subject across all studies for all applications or submissions involving the product.
Events,DS,4.0,Events,DS,DSSEQ,Sequence Number,Num,,,,,Identifier,Req,Sequence number given to ensure uniqueness of subject records within a domain. May be any valid number.
Events,DS,5.0,Events,DS,DSGRPID,Group ID,Char,,,,,Identifier,Perm,Used to tie together a block of related records in a single domain for a subject.
Events,DS,6.0,Events,DS,DSREFID,Reference ID,Char,,,,,Identifier,Perm,Internal or external identifier.
Events,DS,7.0,Events,DS,DSSPID,Sponsor-Defined Identifier,Char,,,,,Identifier,Perm,Sponsor-defined reference number. May be preprinted on the CRF as an explicit line identifier or defined in the sponsor's operational database. Example: Line number on a Disposition page.
Events,DS,8.0,Events,DS,DSTERM,Reported Term for the Disposition Event,Char,,,,,Topic,Req,"Verbatim name of the event or protocol milestone. Some terms in DSTERM will match DSDECOD, but others, such as ""Subject moved"", will map to controlled terminology in DSDECOD, such as ""LOST TO FOLLOW-UP""."
Events,DS,9.0,Events,DS,DSDECOD,Standardized Disposition Term,Char,C66727; C114118; C150811,,,,Synonym Qualifier,Req,"Controlled terminology for the name of disposition event or protocol milestone. Examples of protocol milestones: ""INFORMED CONSENT OBTAINED"", ""RANDOMIZED"". There are separate codelists used for DSDECOD where the choice depends on the value of DSCAT. Codelist ""NCOMPLT"" is used for disposition events, codelist ""PROTMLST"" is used for protocol milestones, and codelist ""OTHEVENT"" is used for other events."
Events,DS,10.0,Events,DS,DSCAT,Category for Disposition Event,Char,C74558,,,,Grouping Qualifier,Exp,Used to define a category of related records.
Events,DS,11.0,Events,DS,DSSCAT,Subcategory for Disposition Event,Char,C170443,,,,Grouping Qualifier,Perm,"A further categorization of DSCAT (e.g., ""STUDY PARTICIPATION"", ""STUDY TREATMENT"" when DSCAT = ""DISPOSITION EVENT""). The variable may be subject to controlled terminology for other categories of disposition event records."
Events,DS,12.0,Events,DS,EPOCH,Epoch,Char,C99079,,,,Timing,Perm,Epoch associated with the start date/time of the event.
Events,DS,13.0,Events,DS,DSDTC,Date/Time of Collection,Char,,,ISO 8601 datetime or interval,,Timing,Perm,Collection date and time of the disposition observation represented in ISO 8601 character format.
Events,DS,14.0,Events,DS,DSSTDTC,Start Date/Time of Disposition Event,Char,,,ISO 8601 datetime or interval,,Timing,Exp,Start date/time of the disposition event in ISO 8601 character format.
Events,DS,15.0,Events,DS,DSDY,Study Day of Collection,Num,,,,,Timing,Perm,Study day of collection of event relative to the sponsor-defined RFSTDTC.
Events,DS,16.0,Events,DS,DSSTDY,Study Day of Start of Disposition Event,Num,,,,,Timing,Exp,Study day of start of event relative to the sponsor-defined RFSTDTC.
Events,DV,1.0,Events,DV,STUDYID,Study Identifier,Char,,,,,Identifier,Req,Unique identifier for a study.
Events,DV,2.0,Events,DV,DOMAIN,Domain Abbreviation,Char,,,,DV,Identifier,Req,Two-character abbreviation for the domain.
Events,DV,3.0,Events,DV,USUBJID,Unique Subject Identifier,Char,,,,,Identifier,Req,Identifier used to uniquely identify a subject across all studies for all applications or submissions involving the product.
Events,DV,4.0,Events,DV,DVSEQ,Sequence Number,Num,,,,,Identifier,Req,Sequence number given to ensure uniqueness of subject records within a domain. May be any valid number.
Events,DV,5.0,Events,DV,DVREFID,Reference ID,Char,,,,,Identifier,Perm,Internal or external identifier.
Events,DV,6.0,Events,DV,DVSPID,Sponsor-Defined Identifier,Char,,,,,Identifier,Perm,Sponsor-defined reference number. May be preprinted on the CRF as an explicit line identifier or defined in the sponsor's operational database. Example: Line number on a CRF page.
Events,DV,7.0,Events,DV,DVTERM,Protocol Deviation Term,Char,,,,,Topic,Req,"Verbatim name of the protocol deviation criterion. Example: ""IVRS PROCESS DEVIATION - NO DOSE CALL PERFORMED"". DVTERM values will map to the controlled terminology in DVDECOD (e.g., ""TREATMENT DEVIATION"")."
Events,DV,8.0,Events,DV,DVDECOD,Protocol Deviation Coded Term,Char,,,,,Synonym Qualifier,Perm,"Controlled terminology for the name of the protocol deviation. Examples: ""SUBJECT NOT WITHDRAWN AS PER PROTOCOL"", ""SELECTION CRITERIA NOT MET"", ""EXCLUDED CONCOMITANT MEDICATION"", ""TREATMENT DEVIATION""."
Events,DV,9.0,Events,DV,DVCAT,Category for Protocol Deviation,Char,,,,,Grouping Qualifier,Perm,Category of the protocol deviation criterion.
Events,DV,10.0,Events,DV,DVSCAT,Subcategory for Protocol Deviation,Char,,,,,Grouping Qualifier,Perm,A further categorization of the protocol deviation.
Events,DV,11.0,Events,DV,TAETORD,Planned Order of Element within Arm,Num,,,,,Timing,Perm,Number that gives the planned order of the element within the arm.
Events,DV,12.0,Events,DV,EPOCH,Epoch,Char,C99079,,,,Timing,Perm,"Epoch associated with the start date/time of the deviation. Examples: ""TREATMENT"", ""SCREENING"", ""FOLLOW-UP""."
Events,DV,13.0,Events,DV,DVSTDTC,Start Date/Time of Deviation,Char,,,ISO 8601 datetime or interval,,Timing,Perm,Start date/time of deviation represented in ISO 8601 character format.
Events,DV,14.0,Events,DV,DVENDTC,End Date/Time of Deviation,Char,,,ISO 8601 datetime or interval,,Timing,Perm,End date/time of deviation represented in ISO 8601 character format.
Events,DV,15.0,Events,DV,DVSTDY,Study Day of Start of Deviation Event,Num,,,,,Timing,Perm,Study day of start of event relative to the sponsor-defined RFSTDTC.
Events,DV,16.0,Events,DV,DVENDY,Study Day of End of Deviation Event,Num,,,,,Timing,Perm,Study day of end of event relative to the sponsor-defined RFSTDTC.
Events,HO,1.0,Events,HO,STUDYID,Study Identifier,Char,,,,,Identifier,Req,Unique identifier for a study.
Events,HO,2.0,Events,HO,DOMAIN,Domain Abbreviation,Char,,,,HO,Identifier,Req,Two-character abbreviation for the domain.
Events,HO,3.0,Events,HO,USUBJID,Unique Subject Identifier,Char,,,,,Identifier,Req,Identifier used to uniquely identify a subject across all studies for all applications or submissions involving the product.
Events,HO,4.0,Events,HO,HOSEQ,Sequence Number,Num,,,,,Identifier,Req,Sequence number given to ensure uniqueness of subject records within a domain. May be any valid number.
Events,HO,5.0,Events,HO,HOGRPID,Group ID,Char,,,,,Identifier,Perm,Used to tie together a block of related records in a single domain for a subject.
Events,HO,6.0,Events,HO,HOREFID,Reference ID,Char,,,,,Identifier,Perm,Internal or external healthcare encounter identifier.
Events,HO,7.0,Events,HO,HOSPID,Sponsor-Defined Identifier,Char,,,,,Identifier,Perm,Sponsor-defined identifier. May be preprinted on the CRF as an explicit line identifier or defined in the sponsor's operational database. Example: Line number on a Healthcare Encounters CRF page.
Events,HO,8.0,Events,HO,HOTERM,Healthcare Encounter Term,Char,,,,,Topic,Req,Verbatim or preprinted CRF term for the healthcare encounter.
Events,HO,9.0,Events,HO,HODECOD,Dictionary-Derived Term,Char,C171444,,,,Synonym Qualifier,Perm,Dictionary or sponsor-defined derived text description of HOTERM or the modified topic variable (HOMODIFY).
Events,HO,10.0,Events,HO,HOCAT,Category for Healthcare Encounter,Char,,,,,Grouping Qualifier,Perm,Used to define a category of topic-related values.
Events,HO,11.0,Events,HO,HOSCAT,Subcategory for Healthcare Encounter,Char,,,,,Grouping Qualifier,Perm,A further categorization of HOCAT values.
Events,HO,12.0,Events,HO,HOPRESP,Pre-Specified Healthcare Encounter,Char,C66742,,,,Variable Qualifier,Perm,"A value of ""Y"" indicates that this healthcare encounter event was prespecified on the CRF. Values are null for spontaneously reported events (i.e., those collected as free-text verbatim terms)."
Events,HO,13.0,Events,HO,HOOCCUR,Healthcare Encounter Occurrence,Char,C66742,,,,Record Qualifier,Perm,"Used when the occurrence of specific healthcare encounters is solicited, to indicate whether an encounter occurred. Values are null for spontaneously reported events."
Events,HO,14.0,Events,HO,HOSTAT,Completion Status,Char,C66789,,,,Record Qualifier,Perm,The status indicates that the prespecified question was not answered.
Events,HO,15.0,Events,HO,HOREASND,Reason Healthcare Encounter Not Done,Char,,,,,Record Qualifier,Perm,"Describes the reason data for a prespecified event were not collected. Used in conjunction with HOSTAT when value is ""NOT DONE""."
Events,HO,16.0,Events,HO,TAETORD,Planned Order of Element within Arm,Num,,,,,Timing,Perm,Number that gives the planned order of the element within the arm.
Events,HO,17.0,Events,HO,EPOCH,Epoch,Char,C99079,,,,Timing,Perm,"Epoch associated with the start date/time of the healthcare encounter. Examples: ""SCREENING"", ""TREATMENT"", ""FOLLOW-UP""."
Events,HO,18.0,Events,HO,HODTC,Date/Time of Event Collection,Char,,,ISO 8601 datetime or interval,,Timing,Perm,Collection date and time of the healthcare encounter.
Events,HO,19.0,Events,HO,HOSTDTC,Start Date/Time of Healthcare Encounter,Char,,,ISO 8601 datetime or interval,,Timing,Exp,"Start date/time of the healthcare encounter (e.g., date of admission)."
Events,HO,20.0,Events,HO,HOENDTC,End Date/Time of Healthcare Encounter,Char,,,ISO 8601 datetime or interval,,Timing,Perm,"End date/time of the healthcare encounter (e.g., date of discharge)."
Events,HO,21.0,Events,HO,HODY,Study Day of Event Collection,Num,,,,,Timing,Perm,Study day of event collection relative to the sponsor-defined RFSTDTC.
Events,HO,22.0,Events,HO,HOSTDY,Study Day of Start of Encounter,Num,,,,,Timing,Perm,Study day of the start of the healthcare encounter relative to the sponsor-defined RFSTDTC.
Events,HO,23.0,Events,HO,HOENDY,Study Day of End of Healthcare Encounter,Num,,,,,Timing,Perm,Study day of the end of the healthcare encounter relative to the sponsor-defined RFSTDTC.
Events,HO,24.0,Events,HO,HODUR,Duration of Healthcare Encounter,Char,,,ISO 8601 duration,,Timing,Perm,"Collected duration of the healthcare encounter. Used only if collected on the CRF and not derived from the start and end date/times. Example: ""P1DT2H"" (for 1 day, 2 hours)."
Events,HO,25.0,Events,HO,HOSTRTPT,Start Relative to Reference Time Point,Char,C66728,,,,Timing,Perm,"Identifies the start of the observation as being before or after the sponsor-defined reference time point defined by variable --STTPT. \n Not all values of the codelist are allowable for this variable. See Section 4.4.7, Use of Relative Timing Variables."
Events,HO,26.0,Events,HO,HOSTTPT,Start Reference Time Point,Char,,,,,Timing,Perm,"Description or date/time in ISO 8601 character format of the sponsor-defined reference point referred to by STRTPT. Examples: ""2003-12-15"", ""VISIT 1""."
Events,HO,27.0,Events,HO,HOENRTPT,End Relative to Reference Time Point,Char,C66728,,,,Timing,Perm,"Identifies the end of the event as being before or after the reference time point defined by variable HOENTPT. \n Not all values of the codelist are allowable for this variable. See Section 4.4.7, Use of Relative Timing Variables."
Events,HO,28.0,Events,HO,HOENTPT,End Reference Time Point,Char,,,,,Timing,Perm,"Description or date/time in ISO 8601 character format of the reference point referred to by HOENRTPT. Examples: ""2003-12-25"", ""VISIT 2""."
Events,MH,1.0,Events,MH,STUDYID,Study Identifier,Char,,,,,Identifier,Req,Unique identifier for a study.
Events,MH,2.0,Events,MH,DOMAIN,Domain Abbreviation,Char,,,,MH,Identifier,Req,Two-character abbreviation for the domain.
Events,MH,3.0,Events,MH,USUBJID,Unique Subject Identifier,Char,,,,,Identifier,Req,Identifier used to uniquely identify a subject across all studies for all applications or submissions involving the product.
Events,MH,4.0,Events,MH,MHSEQ,Sequence Number,Num,,,,,Identifier,Req,Sequence number given to ensure uniqueness of subject records within a domain. May be any valid number.
Events,MH,5.0,Events,MH,MHGRPID,Group ID,Char,,,,,Identifier,Perm,Used to tie together a block of related records in a single domain for a subject.
Events,MH,6.0,Events,MH,MHREFID,Reference ID,Char,,,,,Identifier,Perm,Internal or external medical history identifier.
Events,MH,7.0,Events,MH,MHSPID,Sponsor-Defined Identifier,Char,,,,,Identifier,Perm,Sponsor-defined reference number. May be preprinted on the CRF as an explicit line identifier or defined in the sponsor's operational database. Example: Line number on a Medical History CRF page.
Events,MH,8.0,Events,MH,MHTERM,Reported Term for the Medical History,Char,,,,,Topic,Req,Verbatim or preprinted CRF term for the medical condition or event.
Events,MH,9.0,Events,MH,MHMODIFY,Modified Reported Term,Char,,,,,Synonym Qualifier,Perm,"If MHTERM is modified to facilitate coding, then MHMODIFY will contain the modified text."
Events,MH,10.0,Events,MH,MHDECOD,Dictionary-Derived Term,Char,,,,,Synonym Qualifier,Perm,Dictionary-derived text description of MHTERM or MHMODIFY. Equivalent to the Preferred Term (PT in MedDRA). The sponsor is expected to provide the dictionary name and version used to map the terms utilizing the external codelist element in the Define-XML document.
Events,MH,11.0,Events,MH,MHEVDTYP,Medical History Event Date Type,Char,C124301,,,,Variable Qualifier,Perm,"Specifies the aspect of the medical condition or event by which MHSTDTC and/or the MHENDTC is defined. Examples: ""DIAGNOSIS"", ""SYMPTOMS"", ""RELAPSE"", ""INFECTION""."
Events,MH,12.0,Events,MH,MHCAT,Category for Medical History,Char,,,,,Grouping Qualifier,Perm,"Used to define a category of related records. Examples: ""CARDIAC"", ""GENERAL""."
Events,MH,13.0,Events,MH,MHSCAT,Subcategory for Medical History,Char,,,,,Grouping Qualifier,Perm,A further categorization of the condition or event.
Events,MH,14.0,Events,MH,MHPRESP,Medical History Event Pre-Specified,Char,C66742,,,,Variable Qualifier,Perm,"A value of ""Y"" indicates that this medical history event was prespecified on the CRF. Values are null for spontaneously reported events (i.e., those collected as free-text verbatim terms)."
Events,MH,15.0,Events,MH,MHOCCUR,Medical History Occurrence,Char,C66742,,,,Record Qualifier,Perm,"Used when the occurrence of specific medical history conditions is solicited, to indicate whether (""Y""/""N"") a medical condition (MHTERM) had ever occurred. Values are null for spontaneously reported events."
Events,MH,16.0,Events,MH,MHSTAT,Completion Status,Char,C66789,,,,Record Qualifier,Perm,The status indicates that the prespecified question was not asked/answered.
Events,MH,17.0,Events,MH,MHREASND,Reason Medical History Not Collected,Char,,,,,Record Qualifier,Perm,"Describes the reason why data for a prespecified condition was not collected. Used in conjunction with MHSTAT when value is ""NOT DONE""."
Events,MH,18.0,Events,MH,MHBODSYS,Body System or Organ Class,Char,,,,,Record Qualifier,Perm,"Dictionary-derived. Body system or organ class that is involved in an event or measurement from a standard hierarchy (e.g., MedDRA). When using a multi-axial dictionary such as MedDRA, this should contain the SOC used for the sponsor's analyses and summary tables which may not necessarily be the primary SOC."
Events,MH,19.0,Events,MH,TAETORD,Planned Order of Element within Arm,Num,,,,,Timing,Perm,Number that gives the planned order of the element within the arm for the element in which the assessment was made.
Events,MH,20.0,Events,MH,EPOCH,Epoch,Char,C99079,,,,Timing,Perm,Epoch associated with the start date/time of the medical history event.
Events,MH,21.0,Events,MH,MHDTC,Date/Time of History Collection,Char,,,ISO 8601 datetime or interval,,Timing,Perm,Collection date and time of the medical history observation represented in ISO 8601 character format.
Events,MH,22.0,Events,MH,MHSTDTC,Start Date/Time of Medical History Event,Char,,,ISO 8601 datetime or interval,,Timing,Perm,Start date/time of the medical history event represented in ISO 8601 character format.
Events,MH,23.0,Events,MH,MHENDTC,End Date/Time of Medical History Event,Char,,,ISO 8601 datetime or interval,,Timing,Perm,End date/time of the medical history event.
Events,MH,24.0,Events,MH,MHDY,Study Day of History Collection,Num,,,,,Timing,Perm,"Study day of medical history collection, measured as integer day. Algorithm for calculations must be relative to the sponsor-defined RFSTDTC variable in Demographics. This formula should be consistent across the submission."
Events,MH,25.0,Events,MH,MHENRF,End Relative to Reference Period,Char,C66728,,,,Timing,Perm,"Describes the end of the event relative to the sponsor-defined reference period. The sponsor-defined reference period is a continuous period of time defined by a discrete starting point and a discrete ending point (represented by RFSTDTC and RFENDTC in Demographics). \n Not all values of the codelist are allowable for this variable. See Section 4.4.7, Use of Relative Timing Variables."
Events,MH,26.0,Events,MH,MHENRTPT,End Relative to Reference Time Point,Char,C66728,,,,Timing,Perm,"Identifies the end of the event as being before or after the reference time point defined by variable MHENTPT. \n Not all values of the codelist are allowable for this variable. See Section 4.4.7, Use of Relative Timing Variables."
Events,MH,27.0,Events,MH,MHENTPT,End Reference Time Point,Char,,,,,Timing,Perm,"Description or date/time in ISO 8601 character format of the reference point referred to by MHENRTPT. Examples: ""2003-12-25"", ""VISIT 2""."
Findings,BS,1.0,Findings,BS,STUDYID,Study Identifier,Char,,,,,Identifier,Req,Unique identifier for a study.
Findings,BS,2.0,Findings,BS,DOMAIN,Domain Abbreviation,Char,,,,BS,Identifier,Req,Two-character abbreviation for the domain.
Findings,BS,3.0,Findings,BS,USUBJID,Unique Subject Identifier,Char,,,,,Identifier,Req,Identifier used to uniquely identify a subject across all studies for all applications or submissions involving the product.
Findings,BS,4.0,Findings,BS,SPDEVID,Sponsor Device Identifier,Char,,,,,Identifier,Perm,Sponsor-defined identifier for a device.
Findings,BS,5.0,Findings,BS,BSSEQ,Sequence Number,Num,,,,,Identifier,Req,Sequence number given to ensure uniqueness within a dataset for a subject. May be any valid number (including decimals) and does not have to start at 1.
Findings,BS,6.0,Findings,BS,BSGRPID,Group ID,Char,,,,,Identifier,Perm,"Optional group identifier, used to link together a block of related records within a subject in a domain."
Findings,BS,7.0,Findings,BS,BSREFID,Reference ID,Char,,,,,Identifier,Exp,Internal or external identifier such as lab specimen ID.
Findings,BS,8.0,Findings,BS,BSSPID,Sponsor-Defined Identifier,Char,,,,,Identifier,Perm,Sponsor-defined identifier.
Findings,BS,9.0,Findings,BS,BSTESTCD,Biospecimen Test Short Name,Char,C124300,,,,Topic,Req,"Short character value for BSTEST used as a column name when converting a dataset from a vertical format to a horizontal format. The short value can be up to 8 characters. Examples: VOLUME, RIN."
Findings,BS,10.0,Findings,BS,BSTEST,Biospecimen Test Name,Char,C124299,,,,Synonym Qualifier,Req,"Long name for BSTESTCD. Examples: Volume, RNA Integrity Number."
Findings,BS,11.0,Findings,BS,BSCAT,Category for Biospecimen Test,Char,,,,,Grouping Qualifier,Exp,"Used to define a category of topic-variable values. Example: MEASUREMENT, QUALITY."
Findings,BS,12.0,Findings,BS,BSSCAT,Subcategory for Biospecimen Test,Char,,,,,Grouping Qualifier,Perm,Used to define a further categorization of BSCAT values.
Findings,BS,13.0,Findings,BS,BSORRES,Result or Finding in Original Units,Char,,,,,Result Qualifier,Exp,Result of the measurement or finding as originally received or collected.
Findings,BS,14.0,Findings,BS,BSORRESU,Original Units,Char,C71620,,,,Variable Qualifier,Exp,"Unit for BSORRES. Examples: mg, mL."
Findings,BS,15.0,Findings,BS,BSSTRESC,Character Result/Finding in Std Format,Char,,,,,Result Qualifier,Exp,"Contains the result value for all findings, copied or derived from BSORRES in a standard format or standard units. BSSTRESC should store all results or findings in character format; if results are numeric, they should also be stored in numeric format in BSSTRESN."
Findings,BS,16.0,Findings,BS,BSSTRESN,Numeric Result/Finding in Standard Units,Num,,,,,Result Qualifier,Exp,Used for continuous or numeric results or findings in standard format; copied in numeric format from BSSTRESC. BSSTRESN should store all numeric test results or findings.
Findings,BS,17.0,Findings,BS,BSSTRESU,Standard Units,Char,C71620,,,,Variable Qualifier,Exp,Standardized unit used for BSSTRESC and BSSTRESN.
Findings,BS,18.0,Findings,BS,BSSTAT,Completion Status,Char,C66789,,,,Record Qualifier,Perm,"Used to indicate that a test was not done, or was attempted but did not generate a result. Should be null or have a value of NOT DONE."
Findings,BS,19.0,Findings,BS,BSREASND,Reason Test Not Done,Char,,,,,Record Qualifier,Perm,Reason not done. Used in conjunction with BSSTAT when value is NOT DONE.
Findings,BS,20.0,Findings,BS,BSNAM,Vendor Name,Char,,,,,Record Qualifier,Perm,"Name or identifier of the vendor (e.g., laboratory) that provided the test results."
Findings,BS,21.0,Findings,BS,BSSPEC,Specimen Type,Char,C78734; C111114,,,,Record Qualifier,Perm,"Defines the type of specimen used for a measurement. Examples: SERUM, PLASMA, URINE, SOFT TISSUE."
Findings,BS,22.0,Findings,BS,BSANTREG,Anatomical Region of Specimen,Char,,,,,Variable Qualifier,Perm,"Defines the specific anatomical or biological region of a tissue, organ specimen or the region from which the specimen is obtained, as defined in the protocol, such as a section or part of what is described in the BSSPEC variable. Examples: CORTEX, MEDULLA, MUCOSA."
Findings,BS,23.0,Findings,BS,BSSPCCND,Specimen Condition,Char,C78733,,,,Record Qualifier,Perm,"Defines the condition of the specimen. Examples: HEMOLYZED, ICTERIC, LIPEMIC."
Findings,BS,24.0,Findings,BS,BSMETHOD,Method of Test or Examination,Char,C85492,,,,Record Qualifier,Perm,"Method of the test or examination. Examples: SPECTROPHOTOMETRY, ELECTROPHORESIS."
Findings,BS,25.0,Findings,BS,BSBLFL,Baseline Flag,Char,C66742,,,,Record Qualifier,Perm,Indicator used to identify a baseline value.
Findings,BS,26.0,Findings,BS,VISITNUM,Visit Number,Num,,,,,Timing,Exp,"Clinical encounter number. Numeric version of VISIT, used for sorting."
Findings,BS,27.0,Findings,BS,VISIT,Visit Name,Char,,,,,Timing,Perm,Protocol-defined description of clinical encounter.
Findings,BS,28.0,Findings,BS,VISITDY,Planned Study Day of Visit,Num,,,,,Timing,Perm,Planned study day of VISIT. Should be an integer.
Findings,BS,29.0,Findings,BS,BSDTC,Date/Time of Specimen Collection,Char,,,ISO 8601 datetime or interval,,Timing,Exp,Date and time of specimen collection.
Findings,BS,30.0,Findings,BS,BSDY,Study Day of Specimen Collection,Num,,,,,Timing,Perm,Study day of specimen collection relative to the sponsor-defined RFSTDTC.
Findings,BS,31.0,Findings,BS,BSTPT,Planned Time Point Name,Char,,,,,Timing,Perm,"Text description of time when a measurement or observation should be taken as defined in the protocol. This may be represented as an elapsed time relative to a fixed reference point, such as time of last dose. See BSTPTNUM and BSTPTREF."
Findings,BS,32.0,Findings,BS,BSTPTNUM,Planned Time Point Number,Num,,,,,Timing,Perm,Numerical version of BSTPT used in sorting.
Findings,BS,33.0,Findings,BS,BSELTM,Planned Elapsed Time from Time Point Ref,Char,,,ISO 8601 duration,,Timing,Perm,"Elapsed time relative to a planned fixed reference (BSTPTREF). This variable is useful where there are repetitive measures. Not a clock time or a date time variable, but an interval, represented as ISO duration."
Findings,BS,34.0,Findings,BS,BSTPTREF,Time Point Reference,Char,,,,,Timing,Perm,"Name of the fixed reference point referred to by BSELTM, BSTPTNUM, and BSTPT. Examples: PREVIOUS DOSE, PREVIOUS MEAL."
Findings,BS,35.0,Findings,BS,BSRFTDTC,Date/Time of Reference Time Point,Char,,,ISO 8601 datetime or interval,,Timing,Perm,Date/time for a fixed reference time point defined by BSTPTREF.
Findings,CP,1.0,Findings,CP,STUDYID,Study Identifier,Char,,,,,Identifier,Req,Unique identifier for a study.
Findings,CP,2.0,Findings,CP,DOMAIN,Domain Abbreviation,Char,,,,CP,Identifier,Req,Two-character abbreviation for the domain.
Findings,CP,3.0,Findings,CP,USUBJID,Unique Subject Identifier,Char,,,,,Identifier,Req,Identifier used to uniquely identify a subject across all studies for all applications or submissions involving the product.
Findings,CP,4.0,Findings,CP,CPSEQ,Sequence Number,Num,,,,,Identifier,Req,Sequence number to ensure uniqueness of subject records within a domain. May be any valid number.
Findings,CP,5.0,Findings,CP,CPGRPID,Group ID,Char,,,,,Identifier,Perm,Used to tie together a block of related records in a single domain for a subject.
Findings,CP,6.0,Findings,CP,CPREFID,Reference ID,Char,,,,,Identifier,Perm,Internal or external specimen identifier.
Findings,CP,7.0,Findings,CP,CPSPID,Sponsor-Defined Identifier,Char,,,,,Identifier,Perm,Sponsor-defined reference number. May be preprinted on the CRF as an explicit line identifier or defined in the sponsor's operational database. Example: Line number on the lab page.
Findings,CP,8.0,Findings,CP,CPLNKID,Link ID,Char,,,,,Identifier,Perm,Identifier used to link related records across domains. This may be a one-to-one or a one-to-many relationship.
Findings,CP,9.0,Findings,CP,CPLNKGRP,Link Group ID,Char,,,,,Identifier,Perm,Identifier used to link related records across domains. This will usually be a many-to-one relationship.
Findings,CP,10.0,Findings,CP,CPTESTCD,Test or Examination Short Name,Char,C181173,,,,Topic,Req,"Short name of the measurement, test, or examination described in CPTEST. It can be used as a column name when converting a dataset from a vertical to a horizontal format. The value in CPTESTCD cannot be longer than 8 characters, nor can it start with a number (e.g., ""1TEST"" is not valid). CPTESTCD cannot contain characters other than letters, numbers, or underscores. Examples: ""MONO"", ""MNS""."
Findings,CP,11.0,Findings,CP,CPTEST,"Name of Measurement, Test or Examination",Char,C181174,,,,Synonym Qualifier,Req,"Long name for CPTESTCD. For cell phenotyping, the name (often abbreviated) of the cell population, as it is generally accepted by the scientific community, is populated (rather than a colloquial designation based on a primary marker, e.g., TLym Help rather than CD4). When the test is for a sublineage which can only be identified by specifying additional markers (i.e., has not been given a name) or which is further restricted to a subpopulation based on a particular cell state (e.g., activated, proliferating, apoptotic), the Sublineage Marker String (CPSBMRKS), Cell State (CPCELSTA), and Cell State Marker String (CPCSMRKS) variables are additionally populated and the value in CPTEST is suffixed with ""Sub"" to denote that it is a subset of the population identified in CPTEST (e.g., Monocytes Sub). \n The value in CPTEST cannot be longer than 40 characters."
Findings,CP,12.0,Findings,CP,CPSBMRKS,Sublineage Marker String,Char,,,,,Variable Qualifier,Perm,"Used to further subset the cell population identified in CPTEST based on the use of additional marker(s) that define a sublineage. The value in CPSBMRKS is used in combination with values in CPTEST and CPCELSTA to fully describe the cell population being measured. As such, it is an essential component of the full test name. \n For example, three unnamed sublineages of monocytes have been identified as: CCR2+CD16-, CCR2-CD16+, and CCR2+CD16+. Whereas the entire monocyte cell population can be defined as CD14+ cells, the additional CCR2 and CD16 markers are used to differentiate one sublineage from another. As none of these sublineages have been given names, they are only known by the CCR2 and CD16 marker combinations. By associating the CPTEST value of ""Monocytes Sub"" with, for example, a value of ""CCR2+CD16-"" in CPSBMRKS, the full test is defined to be the CCR2+CD16- monocyte subpopulation."
Findings,CP,13.0,Findings,CP,CPCELSTA,Cell State,Char,C181172,,,,Variable Qualifier,Perm,"A textual description of a subset of the cell population identified in CPTEST based on a particular functional and/or biological state (e.g., ""ACTIVATED"", ""PROLIFERATING"", ""SENESCENT""). When populated, the values in CPCELSTA and CPSMRKS, in combination with the values in CPTEST and CPSBMRKS, fully describe the cell population being measured."
Findings,CP,14.0,Findings,CP,CPCSMRKS,Cell State Marker String,Char,,,,,Variable Qualifier,Perm,"Identifies the marker(s) or indicator(s) used to define the cell state (i.e., the value in CPCELSTA). \n For example, when Ki67 expression is used to determine that a cell population is in a proliferating state (i.e., CPCELSTA value=""PROLIFERATING""), the value ""Ki67+"" in CPCSMRKS indicates that positive expression of Ki67 was used to define the population as proliferating. Similarly, a value of ""Ki67-"" in CPCSMRKS would indicate that lack of expression of Ki67 defined the ""NON-PROLIFERATING"" cell state in CPCELSTA. The CPCSMRKS value is useful for quickly determining which marker(s) were used to classify (i.e., operationally define) a cell population based on a functional/biological state."
Findings,CP,15.0,Findings,CP,CPTSTCND,Test Condition,Char,C181175,,,,Variable Qualifier,Perm,"Identifies any planned condition imposed by the assay system on the specimen at the time the test is performed. --TSTCND is generally used to distinguish between two or more records where the same assay is performed under varying (as opposed to fixed) conditions, usually for the purpose of making a comparison. For example, when the same assay (identified in --TEST) is performed under stimulated and non-stimulated conditions, the --TSTCND variable is used distinguish between the records."
Findings,CP,16.0,Findings,CP,CPCNDAGT,Test Condition Agent,Char,,,,,Record Qualifier,Perm,"The textual description of the agent, if applicable, used to impose the condition identified in CPTSTCND. For example, records might be produced for the same assay run under stimulating (CPTSTCND value = ""STIMULATED"") conditions produced by different stimulating agents (e.g., phorbol myristate acetate, concanavalin A, PHA-P, TNF-alpha, Ionomycin, candida antigen)."
Findings,CP,17.0,Findings,CP,CPBDAGNT,Binding Agent,Char,,,,,Record Qualifier,Perm,"The textual description of the agent that is binding to the entity in the CPTEST variable. The CPBDAGNT variable is used to indicate that there is a binding relationship between the entities in the CPTEST and CPBDAGNT variables, regardless of direction. \n The binding agent may be, but is not limited to, a test article; a portion of a test article; a substance related to a test article; an endogenous molecule; an allergen; an infectious agent; or a reagent (e.g., primary antibody) that confers the binding specificity for the measurement defined in CPTEST when it is needed to uniquely identify the test."
Findings,CP,18.0,Findings,CP,CPABCLID,Antibody Clone Identifier,Char,,,,,Record Qualifier,Perm,"Identifies the antibody clone (e.g., supplier-provided catalog name) used to confer specificity for the binding agent specified in CPBDAGNT."
Findings,CP,19.0,Findings,CP,CPMRKSTR,Marker String,Char,,,,,Record Qualifier,Exp,"The text string identifying the full set of markers/indicators used by the laboratory to operationally define the complete test based on the combination of CPTEST, CPSBMRKS, and CPCELSTA. Because laboratories often use different markers/indicators to identify a cell population, the relationship between a named cell population in CPTEST (as combined with CPSBMRKS and CPCELSTA values) and the set of markers used to identify that population is many-to-one. To ensure nuances important for accurately interpreting the data are accounted for and which arise from the use of different sets of markers, it is necessary to operationally define the test in terms of the complete set of markers/indicators used to perform that test."
Findings,CP,20.0,Findings,CP,CPGATE,Gate,Char,,,,,Record Qualifier,Perm,"The sponsor-defined name assigned to a gate. Gates are electronic (i.e., a device setting or software-defined) boundaries set by a user to virtually parse a specimen into discrete populations based on a set of defined characteristics (e.g., presence, absence, or intensity of expression of various markers; physical size; internal complexity or granularity). Gates are used to constrain data collection or analysis to a specific cell population or region of interest within the specimen."
Findings,CP,21.0,Findings,CP,CPGATDEF,Gate Definition,Char,,,,,Record Qualifier,Perm,"The text string identifying the set of parameters and the order in which they are applied to define the gating strategy. In practice, a series of 2-dimensional sub-gates based on different cell characteristics (i.e., markers/indicators/physical properties) are most often combined until the cell population of interest is sufficiently resolved (i.e., electronically isolated) from other cell populations contained within the specimen. \n For complex analyses, differences in gating strategies can produce subtle differences in results obtained for a test. To ensure nuances important for accurately interpreting the data are accounted for and which arise from the use of different gating strategies, it is often necessary to qualify the test in terms of the gating strategy. For some purposes, however, and at the discretion of the sponsor, only the ultimate or penultimate gate is identified. When specifying the gating strategy in CPGATDEF, each sub-gate should be listed in the order it was applied and separated from the next sub-gate using the pipe/vertical line (""|"") character."
Findings,CP,22.0,Findings,CP,CPSPTSTD,Sponsor Test Description,Char,,,,,Record Qualifier,Perm,"Sponsor's description of a test. The variable is intended to contain highly structured test description metadata used by a sponsor to unambiguously define (label) a test. Such values generally reside in a sponsor/laboratory test metadata repository. CPSPTSTD is not intended for unstructured (spontaneous) free text. \n An example of appropriate usage is when it is necessary to include identifying information for a target cell population on which a test is conducted when the target population is not part of the test name, e.g., tests for quantitative expression of a particular marker on a specific cell population."
Findings,CP,23.0,Findings,CP,CPCAT,Category,Char,C181171,,,,Grouping Qualifier,Perm,"Used to define a category of topic-variable values across subjects. Examples: ""IMMUNOPHENOTYPING"", ""CELL FUNCTION"", ""TARGET ENGAGEMENT""."
Findings,CP,24.0,Findings,CP,CPSCAT,Subcategory,Char,,,,,Grouping Qualifier,Perm,A further categorization of CPCAT.
Findings,CP,25.0,Findings,CP,CPTSTPNL,Test Panel,Char,,,,,Grouping Qualifier,Perm,Sponsor-defined textual description used to group tests run together as part of a test panel. Can be used with --GRPID to ensure that relationships between associated tests are accurately identified.
Findings,CP,26.0,Findings,CP,CPORRES,Result or Finding in Original Units,Char,,,,,Result Qualifier,Exp,Result of the measurement or finding as originally received or collected.
Findings,CP,27.0,Findings,CP,CPORRESU,Original Units,Char,C71620,,,,Variable Qualifier,Perm,"Original units in which the data were collected. The unit for CPORRES. Examples: ""10^6/L"", ""%"", ""MESF""."
Findings,CP,28.0,Findings,CP,CPRESSCL,Result Scale,Char,C177910,,,,Record Qualifier,Perm,"Classifies the scale of the original result value with respect to whether the result is quantitative, ordinal, nominal, or narrative."
Findings,CP,29.0,Findings,CP,CPRESTYP,Result Type,Char,C179588,,,,Record Qualifier,Perm,"Classifies the kind of result (i.e., property type) originally reported for the test. Examples: ""NUMBER CONCENTRATION"", ""NUMBER FRACTION"", ""RATIO""."
Findings,CP,30.0,Findings,CP,CPCOLSRT,Collected Summary Result Type,Char,C177908,,,,Record Qualifier,Perm,"Used to indicate the type of collected summary result. This includes source summary results collected on a CRF or provided by an external vendor (e.g., central lab). If the summary result is derived using individual source data records, this summary result should be represented in ADaM. If a sponsor has both a collected summary result and a derived summary result, the collected summary result should be represented in SDTM and the derived summary result should be represented in ADaM."
Findings,CP,31.0,Findings,CP,CPORNRLO,Reference Range Lower Limit in Orig Unit,Char,,,,,Variable Qualifier,Perm,Lower end of reference range for continuous measurement in original units. Should be populated only for continuous results.
Findings,CP,32.0,Findings,CP,CPORNRHI,Reference Range Upper Limit in Orig Unit,Char,,,,,Variable Qualifier,Perm,Upper end of reference range for continuous measurement in original units. Should be populated only for continuous results.
Findings,CP,33.0,Findings,CP,CPSTRESC,Result or Finding in Standard Format,Char,,,,,Result Qualifier,Exp,"Contains the result value for all findings, copied or derived from CPORRES in a standard format or in standard units. CPSTRESC should store all results or findings in character format; if results are numeric, they should also be stored in numeric format in CPSTRESN."
Findings,CP,34.0,Findings,CP,CPSTRESN,Numeric Result/Finding in Standard Units,Num,,,,,Result Qualifier,Perm,Used for continuous or numeric results or findings in standard format; copied in numeric format from CPSTRESC. CPSTRESN should store all numeric test results or findings.
Findings,CP,35.0,Findings,CP,CPSTRESU,Standard Units,Char,C71620,,,,Variable Qualifier,Perm,Standardized unit used for CPSTRESC or CPSTRESN.
Findings,CP,36.0,Findings,CP,CPSTNRLO,Reference Range Lower Limit-Std Units,Num,,,,,Variable Qualifier,Perm,Lower end of reference range for continuous measurements for CPSTRESC/CPSTRESN in standardized units. Should be populated only for continuous results.
Findings,CP,37.0,Findings,CP,CPSTNRHI,Reference Range Upper Limit-Std Units,Num,,,,,Variable Qualifier,Perm,Upper end of reference range for continuous measurements in standardized units. Should be populated only for continuous results.
Findings,CP,38.0,Findings,CP,CPNRIND,Reference Range Indicator,Char,C78736,,,,Variable Qualifier,Perm,"Indicates where the value falls with respect to reference range defined by CPORNRLO and CPORNRHI, CPSTNRLO and CPSTNRHI, or by CPSTNRC. Examples: ""NORMAL"", ""ABNORMAL"", ""HIGH"", ""LOW"". Sponsors should specify in the study metadata (Comments column in the Define-XML document) whether CPNRIND refers to the original or standard reference ranges and results. CPNRIND should not be used to indicate clinical significance."
Findings,CP,39.0,Findings,CP,CPSTAT,Completion Status,Char,C66789,,,,Record Qualifier,Perm,Used to indicate that the test was not performed or that it was attempted but did not generate a result. Should be null if a result exists in CPORRES.
Findings,CP,40.0,Findings,CP,CPREASND,Reason Not Done,Char,,,,,Record Qualifier,Perm,"Describes why a test was not performed, e.g., ""BROKEN EQUIPMENT"", ""SUBJECT REFUSED"", ""SPECIMEN LOST"". Used in conjunction with CPSTAT when value is ""NOT DONE""."
Findings,CP,41.0,Findings,CP,CPNAM,Vendor Name,Char,,,,,Record Qualifier,Perm,The name or identifier of the laboratory that performed the test.
Findings,CP,42.0,Findings,CP,CPLOINC,LOINC Code,Char,,,LOINC,,Synonym Qualifier,Perm,Code for the test from the LOINC code system. The sponsor is expected to provide the dictionary name and version used to map the terms utilizing the Define-XML external codelist attributes.
Findings,CP,43.0,Findings,CP,CPSPEC,Specimen Type,Char,C78734,,,,Record Qualifier,Perm,"Defines the type of specimen used for a measurement. Examples: ""BLOOD"", ""BONE MARROW""."
Findings,CP,44.0,Findings,CP,CPSPCCND,Specimen Condition,Char,C78733,,,,Record Qualifier,Perm,"The physical state or quality of a specimen for an assessment. Example: ""CLOTTED""."
Findings,CP,45.0,Findings,CP,CPMETHOD,Method of Test or Examination,Char,C85492,,,,Record Qualifier,Perm,"Method of the test or examination. Example: ""FLOW CYTOMETRY""."
Findings,CP,46.0,Findings,CP,CPANMETH,Analysis Method,Char,,,,,Record Qualifier,Perm,Analysis method applied to obtain a summarized result. Analysis method describes the method of secondary processing applied to a complex observation result.
Findings,CP,47.0,Findings,CP,CPLOBXFL,Last Observation Before Exposure Flag,Char,C66742,,,,Record Qualifier,Perm,"Operationally-derived indicator used to identify the last non-missing value prior to RFXSTDTC. The value should be ""Y"" or null."
Findings,CP,48.0,Findings,CP,CPBLFL,Baseline Flag,Char,C66742,,,,Record Qualifier,Perm,"Indicator used to identify a baseline value. The value should be ""Y"" or null."
Findings,CP,49.0,Findings,CP,CPDRVFL,Derived Flag,Char,C66742,,,,Record Qualifier,Perm,"Used to indicate a derived record. The value should be ""Y"" or null. Records that represent the average of other records, or do not come from the CRF, or are not as originally received or collected are examples of records that might be derived for the submission datasets. If CPDRVFL = ""Y"", then CPORRES may be null, with CPSTRESC and (if numeric) CPSTRESN having the derived value."
Findings,CP,50.0,Findings,CP,CPCLSIG,"Clinically Significant, Collected",Char,C66742,,,,Record Qualifier,Perm,Used to indicate whether a collected observation is clinically significant based on judgement.
Findings,CP,51.0,Findings,CP,VISITNUM,Visit Number,Num,,,,,Timing,Perm,"Clinical encounter number. Numeric version of VISIT, used for sorting."
Findings,CP,52.0,Findings,CP,VISIT,Visit Name,Char,,,,,Timing,Perm,Protocol-defined description of clinical encounter. May be used in addition to VISITNUM and/or VISITDY.
Findings,CP,53.0,Findings,CP,VISITDY,Planned Study Day of Visit,Num,,,,,Timing,Perm,Planned study day of the visit based upon RFSTDTC in Demographics. Should be an integer.
Findings,CP,54.0,Findings,CP,TAETORD,Planned Order of Element within Arm,Num,,,,,Timing,Perm,Number that gives the planned order of the element within the arm.
Findings,CP,55.0,Findings,CP,EPOCH,Epoch,Char,C99079,,,,Timing,Perm,"Epoch associated with the start date/time of the observation, or the date/time of collection if start date/time is not collected."
Findings,CP,56.0,Findings,CP,CPDTC,Date/Time of Collection,Char,,,ISO 8601 datetime or interval,,Timing,Exp,Date/time of specimen collection represented in ISO 8601 character format.
Findings,CP,57.0,Findings,CP,CPDY,Study Day of Visit/Collection/Exam,Num,,,,,Timing,Perm,"Study day of specimen collection, measured in integer days. Algorithm for calculations must be relative to the sponsor-defined RFSTDTC value in Demographics."
Findings,CP,58.0,Findings,CP,CPTPT,Planned Time Point Name,Char,,,,,Timing,Perm,"Text description of time when a specimen is to be taken, as defined in the protocol. This may be represented as an elapsed time relative to a fixed reference point (i.e., to the value in CPTPTREF). Example: ""1 hour post""."
Findings,CP,59.0,Findings,CP,CPTPTNUM,Planned Time Point Number,Num,,,,,Timing,Perm,"Numerical version of CPTPT to aid in sorting. When CPTPT is represented as an elapsed time relative to a fixed reference point (i.e., to the value in CPTPTREF), the values in CPTPTNUM should be assigned in ascending order relative to the value in CPTPTREF. For example, records for time points where CPTPT = ""5 minutes post"", 1 hour post"", and ""4 hours post"" could be represented in CPTPTNUM as ""1"", ""2"", and ""3"", which maintains the order between CPTPT and CPTPTNUM with respect to the fixed time point reference in CPTPTREF."
Findings,CP,60.0,Findings,CP,CPELTM,Planned Elapsed Time from Time Point Ref,Char,,,ISO 8601 duration,,Timing,Perm,"Planned elapsed time relative to the planned fixed reference value in CPTPTREF, represented in ISO 8601 duration format. Examples: ""-PT15M"" to represent 15 minutes prior to the reference time point indicated by CPTPTREF, ""T8H"" to represent 8 hours after the reference time point represented by CPTPTREF."
Findings,CP,61.0,Findings,CP,CPTPTREF,Time Point Reference,Char,,,,,Timing,Perm,"Descriptive name of the fixed reference point referred to by CPTPT, CPTPTNUM, and CPELTM. Examples: ""PREVIOUS DOSE"", ""PREVIOUS MEAL""."
Findings,CP,62.0,Findings,CP,CPRFTDTC,Date/Time of Reference Time Point,Char,,,ISO 8601 datetime or interval,,Timing,Perm,Date/time for a fixed reference time point defined by CPTPTREF.
Findings,CV,1.0,Findings,CV,STUDYID,Study Identifier,Char,,,,,Identifier,Req,Unique identifier for a study.
Findings,CV,2.0,Findings,CV,DOMAIN,Domain Abbreviation,Char,,,,CV,Identifier,Req,Two-character abbreviation for the domain.
Findings,CV,3.0,Findings,CV,USUBJID,Unique Subject Identifier,Char,,,,,Identifier,Req,Identifier used to uniquely identify a subject across all studies for all applications or submissions involving the product.
Findings,CV,4.0,Findings,CV,CVSEQ,Sequence Number,Num,,,,,Identifier,Req,Sequence number to ensure uniqueness of records within a dataset for a subject. May be any valid number (including decimals) and does not have to start at 1.
Findings,CV,5.0,Findings,CV,CVGRPID,Group ID,Char,,,,,Identifier,Perm,"Optional group identifier, used to link together a block of related records within a subject in a domain."
Findings,CV,6.0,Findings,CV,CVREFID,Reference ID,Char,,,,,Identifier,Perm,Optional internal or external identifier.
Findings,CV,7.0,Findings,CV,CVSPID,Sponsor-Defined Identifier,Char,,,,,Identifier,Perm,Sponsor-defined identifier. Example: a preprinted line identifier on a CRF.
Findings,CV,8.0,Findings,CV,CVLNKID,Link ID,Char,,,,,Identifier,Perm,Identifier used to link related records across domains. This may be a one-to-one or a one-to-many relationship.
Findings,CV,9.0,Findings,CV,CVLNKGRP,Link Group,Char,,,,,Identifier,Perm,Identifier used to link related records across domains. This will usually be a many-to-one relationship.
Findings,CV,10.0,Findings,CV,CVTESTCD,Short Name of Cardiovascular Test,Char,C101847,,,,Topic,Req,"Short name of the measurement, test, or examination described in CVTEST. It can be used as a column name when converting a dataset from a vertical to a horizontal format. The value in CVTESTCD cannot be longer than 8 characters, nor can it start with a number (e.g., ""1TEST"" would not be valid). CVTESTCD cannot contain characters other than letters, numbers, or underscores."
Findings,CV,11.0,Findings,CV,CVTEST,Name of Cardiovascular Test,Char,C101846,,,,Synonym Qualifier,Req,Long name For CVTESTCD. The value in CVTEST cannot be longer than 40 characters.
Findings,CV,12.0,Findings,CV,CVCAT,Category for Cardiovascular Test,Char,,,,,Grouping Qualifier,Perm,Used to define a category of topic-variable values.
Findings,CV,13.0,Findings,CV,CVSCAT,Subcategory for Cardiovascular Test,Char,,,,,Grouping Qualifier,Perm,Used to define a further categorization of CVCAT values.
Findings,CV,14.0,Findings,CV,CVPOS,Position of Subject During Observation,Char,C71148,,,,Record Qualifier,Perm,"Position of the subject during a measurement or examination. Examples: ""SUPINE"", ""STANDING"", ""SITTING""."
Findings,CV,15.0,Findings,CV,CVORRES,Result or Finding in Original Units,Char,,,,,Result Qualifier,Exp,Result of the measurement or finding as originally received or collected.
Findings,CV,16.0,Findings,CV,CVORRESU,Original Units,Char,C71620,,,,Variable Qualifier,Perm,Original units in which the data were collected. Unit for CVORRES.
Findings,CV,17.0,Findings,CV,CVSTRESC,Character Result/Finding in Std Format,Char,,,,,Result Qualifier,Exp,"Contains the result value for all findings, copied or derived, from CVORRES in a standard format or in standard units. CVSTRESC should store all results or findings in character format; if results are numeric, they should also be stored in numeric format in CVSTRESN. For example, if various tests have results ""NONE"", ""NEG"", and ""NEGATIVE"" in CVORRES and these results effectively have the same meaning, they could be represented in standard format in CVSTRESC as ""NEGATIVE""."
Findings,CV,18.0,Findings,CV,CVSTRESN,Numeric Result/Finding in Standard Units,Num,,,,,Result Qualifier,Perm,Used for continuous or numeric results or findings in standard format; copied in numeric format from CVSTRESC. CVSTRESN should store all numeric test results or findings.
Findings,CV,19.0,Findings,CV,CVSTRESU,Standard Units,Char,C71620,,,,Variable Qualifier,Perm,Standardized units used for CVSTRESC and CVSTRESN.
Findings,CV,20.0,Findings,CV,CVSTAT,Completion Status,Char,C66789,,,,Record Qualifier,Perm,"Used to indicate that a question was not asked or a test was not done, or a test was attempted but did not generate a result. Should be null or have a value of ""NOT DONE""."
Findings,CV,21.0,Findings,CV,CVREASND,Reason Not Done,Char,,,,,Record Qualifier,Perm,"Describes why a measurement or test was not performed (e.g., ""BROKEN EQUIPMENT"", ""SUBJECT REFUSED""). Used in conjunction with CVSTAT when value is ""NOT DONE""."
Findings,CV,22.0,Findings,CV,CVLOC,Location Used for the Measurement,Char,C74456,,,,Record Qualifier,Perm,"Anatomical location of the subject relevant to the collection of the measurement. Examples: ""HEART"", ""LEFT VENTRICLE""."
Findings,CV,23.0,Findings,CV,CVLAT,Laterality,Char,C99073,,,,Variable Qualifier,Perm,"Qualifier for anatomical location or specimen further detailing laterality. Examples: ""RIGHT"", ""LEFT"", ""BILATERAL"", ""UNILATERAL""."
Findings,CV,24.0,Findings,CV,CVDIR,Directionality,Char,C99074,,,,Variable Qualifier,Perm,"Qualifier for anatomical location or specimen further detailing directionality. Examples: ""ANTERIOR"", ""LOWER"", ""PROXIMAL""."
Findings,CV,25.0,Findings,CV,CVMETHOD,Method of Test or Examination,Char,C85492,,,,Record Qualifier,Perm,Method used to create the result.
Findings,CV,26.0,Findings,CV,CVLOBXFL,Last Observation Before Exposure Flag,Char,C66742,,,,Record Qualifier,Exp,"Operationally-derived indicator used to identify the last non-missing value prior to RFXSTDTC. The value should be ""Y"" or null."
Findings,CV,27.0,Findings,CV,CVBLFL,Baseline Flag,Char,C66742,,,,Record Qualifier,Perm,"Indicator used to identify a baseline value. Should be ""Y"" or null. Note that CVBLFL is retained for backward compatibility. The authoritative baseline for statistical analysis is in an ADaM dataset."
Findings,CV,28.0,Findings,CV,CVDRVFL,Derived Flag,Char,C66742,,,,Record Qualifier,Perm,"Used to indicate a derived record (i.e., a record that represents the average of other records, such as a computed baseline). Should be ""Y"" or null."
Findings,CV,29.0,Findings,CV,CVEVAL,Evaluator,Char,C78735,,,,Record Qualifier,Perm,"Role of the person who provided the evaluation. Used only for results that are subjective (e.g., assigned by a person or a group). Examples: ""ADJUDICATION COMMITTEE"", "" INDEPENDENT ASSESSOR"", ""RADIOLOGIST""."
Findings,CV,30.0,Findings,CV,CVEVALID,Evaluator Identifier,Char,C96777,,,,Variable Qualifier,Perm,"Used to distinguish multiple evaluators with the same role recorded in CVEVAL. Examples: ""RADIOLOGIST1"" or ""RADIOLOGIST2""."
Findings,CV,31.0,Findings,CV,VISITNUM,Visit Number,Num,,,,,Timing,Exp,"Clinical encounter number. Numeric version of VISIT, used for sorting."
Findings,CV,32.0,Findings,CV,VISIT,Visit Name,Char,,,,,Timing,Perm,Protocol-defined description of clinical encounter. May be used in addition to VISITNUM and/or VISITDY.
Findings,CV,33.0,Findings,CV,VISITDY,Planned Study Day of Visit,Num,,,,,Timing,Perm,Planned study day of VISIT. Should be an integer.
Findings,CV,34.0,Findings,CV,TAETORD,Planned Order of Element within Arm,Num,,,,,Timing,Perm,Number that gives the planned order of the element within the arm for the element in which the assessment was made.
Findings,CV,35.0,Findings,CV,EPOCH,Epoch,Char,C99079,,,,Timing,Perm,Epoch associated with the date/time at which the assessment was made.
Findings,CV,36.0,Findings,CV,CVDTC,Date/Time of Test,Char,,,ISO 8601 datetime or interval,,Timing,Exp,Collection date and time of an observation.
Findings,CV,37.0,Findings,CV,CVDY,Study Day of Visit/Collection/Exam,Num,,,,,Timing,Perm,Actual study day of visit/collection/exam expressed in integer days relative to the sponsor-defined RFSTDTC in Demographics.
Findings,CV,38.0,Findings,CV,CVTPT,Planned Time Point Name,Char,,,,,Timing,Perm,"Text description of time when a measurement or observation should be taken, as defined in the protocol. This may be represented as an elapsed time relative to a fixed reference point, such as time of last dose. See CVTPTNUM and CVTPTREF."
Findings,CV,39.0,Findings,CV,CVTPTNUM,Planned Time Point Number,Num,,,,,Timing,Perm,Numeric version of planned time point used in sorting.
Findings,CV,40.0,Findings,CV,CVELTM,Planned Elapsed Time from Time Point Ref,Char,,,ISO 8601 duration,,Timing,Perm,"Planned elapsed time relative to a planned fixed reference (CVTPTREF). Examples: ""PREVIOUS DOSE"", ""PREVIOUS MEAL"". This variable is useful where there are repetitive measures. Not a clock time or a date/time variable, but an interval, represented as ISO duration."
Findings,CV,41.0,Findings,CV,CVTPTREF,Time Point Reference,Char,,,,,Timing,Perm,"Description of the fixed reference point referred to by CVELTM, CVTPTNUM, and CVTPT. Examples: ""PREVIOUS DOSE"", ""PREVIOUS MEAL""."
Findings,CV,42.0,Findings,CV,CVRFTDTC,Date/Time of Reference Time Point,Char,,,ISO 8601 datetime or interval,,Timing,Perm,Date/time for a fixed reference time point defined by CVTPTREF.
Findings,DA,1.0,Findings,DA,STUDYID,Study Identifier,Char,,,,,Identifier,Req,Unique identifier for a study within the submission.
Findings,DA,2.0,Findings,DA,DOMAIN,Domain Abbreviation,Char,,,,DA,Identifier,Req,Two-character abbreviation for the domain.
Findings,DA,3.0,Findings,DA,USUBJID,Unique Subject Identifier,Char,,,,,Identifier,Req,Identifier used to uniquely identify a subject across all studies for all applications or submissions involving the product.
Findings,DA,4.0,Findings,DA,DASEQ,Sequence Number,Num,,,,,Identifier,Req,Sequence number given to ensure uniqueness of subject records within a domain. May be any valid number.
Findings,DA,5.0,Findings,DA,DAGRPID,Group ID,Char,,,,,Identifier,Perm,Used to tie together a block of related records in a single domain for a subject.
Findings,DA,6.0,Findings,DA,DAREFID,Reference ID,Char,,,,,Identifier,Perm,"Optional internal or external identifier such as a code from the product packaging (e.g., bottle label, package label, kit label)."
Findings,DA,7.0,Findings,DA,DASPID,Sponsor-Defined Identifier,Char,,,,,Identifier,Perm,"Sponsor-defined reference number. May be preprinted on the CRF as an explicit line identifier or defined in the sponsor's operational database. Examples: Line number on the Product Accountability CRF page, a code from the product packaging (e.g., bottle label, package label, kit label)."
Findings,DA,8.0,Findings,DA,DALNKID,Link ID,Char,,,,,Identifier,Perm,Identifier used to link related records across domains. This may be a one-to-one or a one-to-many relationship.
Findings,DA,9.0,Findings,DA,DALNKGRP,Link Group ID,Char,,,,,Identifier,Perm,Identifier used to link related records across domains. This will usually be a many-to-one relationship.
Findings,DA,10.0,Findings,DA,DATESTCD,Short Name of Accountability Assessment,Char,C78732,,,,Topic,Req,"Short character value for DATEST used as a column name when converting a dataset from a vertical format to a horizontal format. The short value can be up to 8 characters and cannot begin with a number or contain characters other than letters, numbers, or underscores. Examples: ""DISPAMT"", ""RETAMT""."
Findings,DA,11.0,Findings,DA,DATEST,Name of Accountability Assessment,Char,C78731,,,,Synonym Qualifier,Req,"Verbatim name corresponding to the topic variable of the test or examination used to obtain the product accountability assessment. The value in DATEST cannot be longer than 40 characters. Examples: ""Dispensed Amount"", ""Returned Amount""."
Findings,DA,12.0,Findings,DA,DACAT,Category,Char,,,,,Grouping Qualifier,Perm,"Used to define a category of topic-variable values. Examples: ""STUDY MEDICATION"", ""RESCUE MEDICATION""."
Findings,DA,13.0,Findings,DA,DASCAT,Subcategory,Char,,,,,Grouping Qualifier,Perm,Used to define a further categorization level for a group of related records.
Findings,DA,14.0,Findings,DA,DAORRES,Result or Finding in Original Units,Char,,,,,Result Qualifier,Exp,Result of the product accountability assessment as originally received or collected.
Findings,DA,15.0,Findings,DA,DAORRESU,Original Units,Char,C71620,,,,Variable Qualifier,Perm,Unit for DAORRES.
Findings,DA,16.0,Findings,DA,DASTRESC,Result or Finding in Standard Format,Char,,,,,Result Qualifier,Exp,"Contains the result value for all product accountability assessments copied or derived from DAORRES, in a standard format or in standard units. DASTRESC should store all results or findings in character format; if results are numeric, they should also be stored in numeric format in DASTRESN."
Findings,DA,17.0,Findings,DA,DASTRESN,Numeric Result/Finding in Standard Units,Num,,,,,Result Qualifier,Perm,Used for continuous or numeric results or findings in standard format; copied in numeric format from DASTRESC. DASTRESN should store all numeric test results or findings.
Findings,DA,18.0,Findings,DA,DASTRESU,Standard Units,Char,C71620,,,,Variable Qualifier,Perm,Standardized units used for DASTRESC and DASTRESN.
Findings,DA,19.0,Findings,DA,DASTAT,Completion Status,Char,C66789,,,,Record Qualifier,Perm,"Used to indicate that a product accountability assessment was not done. Should be null or have a value of ""NOT DONE""."
Findings,DA,20.0,Findings,DA,DAREASND,Reason Not Done,Char,,,,,Record Qualifier,Perm,"Reason not done. Used in conjunction with DASTAT when value is ""NOT DONE""."
Findings,DA,21.0,Findings,DA,VISITNUM,Visit Number,Num,,,,,Timing,Exp,"Clinical encounter number. Numeric version of VISIT, used for sorting."
Findings,DA,22.0,Findings,DA,VISIT,Visit Name,Char,,,,,Timing,Perm,Protocol-defined description of a clinical encounter. May be used in addition to VISITNUM and/or VISITDY.
Findings,DA,23.0,Findings,DA,VISITDY,Planned Study Day of Visit,Num,,,,,Timing,Perm,"Planned study day of the visit, based upon RFSTDTC in Demographics."
Findings,DA,24.0,Findings,DA,TAETORD,Planned Order of Element within Arm,Num,,,,,Timing,Perm,"Number that gives the planned order of the element within the arm (see Section 7.2.1, Trial Arms)."
Findings,DA,25.0,Findings,DA,EPOCH,Epoch,Char,C99079,,,,Timing,Perm,"Epoch associated with the start date/time of the observation, or the date/time of collection if start date/time is not collected."
Findings,DA,26.0,Findings,DA,DADTC,Date/Time of Collection,Char,,,ISO 8601 datetime or interval,,Timing,Exp,Date and time of the product accountability assessment represented in ISO 8601 character format.
Findings,DA,27.0,Findings,DA,DADY,Study Day of Visit/Collection/Exam,Num,,,,,Timing,Perm,"Study day of product accountability assessment, measured in integer days. Algorithm for calculations must be relative to the sponsor-defined RFSTDTC in Demographics."
Findings,DD,1.0,Findings,DD,STUDYID,Study Identifier,Char,,,,,Identifier,Req,Unique identifier for a study.
Findings,DD,2.0,Findings,DD,DOMAIN,Domain Abbreviation,Char,,,,DD,Identifier,Req,Two-character abbreviation for the domain.
Findings,DD,3.0,Findings,DD,USUBJID,Unique Subject Identifier,Char,,,,,Identifier,Req,Identifier used to uniquely identify a subject across all studies for all applications or submissions involving the product.
Findings,DD,4.0,Findings,DD,DDSEQ,Sequence Number,Num,,,,,Identifier,Req,Sequence number given to ensure uniqueness of subject records within a domain. May be any valid number.
Findings,DD,5.0,Findings,DD,DDTESTCD,Death Detail Assessment Short Name,Char,C116108,,,,Topic,Req,"Short name of the measurement, test, or examination described in DDTEST. It can be used as a column name when converting a dataset from a vertical to a horizontal format. The value in DDTESTCD cannot be longer than 8 characters, nor can it start with a number (e.g., ""1TEST"" is not valid). DDTESTCD cannot contain characters other than letters, numbers, or underscores. Examples: ""PRCDTH"", ""SECDTH""."
Findings,DD,6.0,Findings,DD,DDTEST,Death Detail Assessment Name,Char,C116107,,,,Synonym Qualifier,Req,"Long name for DDTESTCD. The value in DDTEST cannot be longer than 40 characters. Examples: ""Primary Cause of Death"", ""Secondary Cause of Death""."
Findings,DD,7.0,Findings,DD,DDORRES,Result or Finding as Collected,Char,,,,,Result Qualifier,Exp,"Result of the test defined in DDTEST, as originally received or collected."
Findings,DD,8.0,Findings,DD,DDSTRESC,Character Result/Finding in Std Format,Char,,,,,Result Qualifier,Exp,Contains the result or finding copied or derived from DDORRES in a standard format.
Findings,DD,9.0,Findings,DD,DDRESCAT,Result Category,Char,,,,,Variable Qualifier,Perm,"Used to categorize the result of a finding. Examples: ""TREATMENT RELATED"", ""NONTREATMENT RELATED"", ""UNDETERMINED"", ""ACCIDENTAL""."
Findings,DD,10.0,Findings,DD,DDEVAL,Evaluator,Char,C78735,,,,Record Qualifier,Perm,Role of the person who provided the evaluation.
Findings,DD,11.0,Findings,DD,DDDTC,Date/Time of Collection,Char,,,ISO 8601 datetime or interval,,Timing,Exp,Date/time of collection of the diagnosis or other death assessment data in ISO 8601 format. This is not necessarily the date of death.
Findings,DD,12.0,Findings,DD,DDDY,Study Day of Collection,Num,,,,,Timing,Perm,"Study day of the collection, in integer days. The algorithm for calculations must be relative to the sponsor-defined RFSTDTC variable in the Demographics (DM) domain."
Findings,EG,1.0,Findings,EG,STUDYID,Study Identifier,Char,,,,,Identifier,Req,Unique identifier for a study.
Findings,EG,2.0,Findings,EG,DOMAIN,Domain Abbreviation,Char,,,,EG,Identifier,Req,Two-character abbreviation for the domain.
Findings,EG,3.0,Findings,EG,USUBJID,Unique Subject Identifier,Char,,,,,Identifier,Req,Identifier used to uniquely identify a subject across all studies for all applications or submissions involving the product.
Findings,EG,4.0,Findings,EG,SPDEVID,Sponsor Device Identifier,Char,,,,,Identifier,Perm,Sponsor-defined identifier for a device.
Findings,EG,5.0,Findings,EG,EGSEQ,Sequence Number,Num,,,,,Identifier,Req,Sequence number given to ensure uniqueness of subject records within a domain. May be any valid number.
Findings,EG,6.0,Findings,EG,EGGRPID,Group ID,Char,,,,,Identifier,Perm,Used to tie together a block of related records in a single domain for a subject.
Findings,EG,7.0,Findings,EG,EGREFID,ECG Reference ID,Char,,,,,Identifier,Perm,"Internal or external ECG identifier. Example: ""334PT89""."
Findings,EG,8.0,Findings,EG,EGSPID,Sponsor-Defined Identifier,Char,,,,,Identifier,Perm,Sponsor-defined reference number. May be printed on the CRF as an explicit line identifier or defined in the sponsor's operational database. Example: Line number on the ECG page.
Findings,EG,9.0,Findings,EG,EGBEATNO,ECG Beat Number,Num,,,,,Identifier,Perm,A sequence number that identifies the beat within an ECG.
Findings,EG,10.0,Findings,EG,EGTESTCD,ECG Test or Examination Short Name,Char,C71153; C120523,,,,Topic,Req,"Short name of the measurement, test, or examination described in EGTEST. It can be used as a column name when converting a dataset from a vertical to a horizontal format. The value in EGTESTCD cannot be longer than 8 characters, nor can it start with a number (e.g., ""1TEST"" is not valid). EGTESTCD cannot contain characters other than letters, numbers, or underscores. Examples: ""PRAG"", ""QRSAG"". \n Test codes are in 2 separate codelists, 1 for tests based on regular 10-second ECGs (EGTESTCD) and one 1 tests based on Holter monitoring (HETESTCD)."
Findings,EG,11.0,Findings,EG,EGTEST,ECG Test or Examination Name,Char,C71152; C120524,,,,Synonym Qualifier,Req,"Verbatim name of the test or examination used to obtain the measurement or finding. The value in EGTEST cannot be longer than 40 characters. Examples: ""PR Interval, Aggregate"", ""QRS Duration, Aggregate"". \n Test names are in 2 separate codelists, 1 for tests based on regular 10-second ECGs (EGTEST) and 1 for tests based on Holter monitoring (HETEST)."
Findings,EG,12.0,Findings,EG,EGCAT,Category for ECG,Char,,,,,Grouping Qualifier,Perm,"Used to categorize ECG observations across subjects. Examples: ""MEASUREMENT"", ""FINDING"", ""INTERVAL""."
Findings,EG,13.0,Findings,EG,EGSCAT,Subcategory for ECG,Char,,,,,Grouping Qualifier,Perm,A further categorization of the ECG.
Findings,EG,14.0,Findings,EG,EGPOS,ECG Position of Subject,Char,C71148,,,,Record Qualifier,Perm,"Position of the subject during a measurement or examination. Examples: ""SUPINE"", ""STANDING"", ""SITTING""."
Findings,EG,15.0,Findings,EG,EGORRES,Result or Finding in Original Units,Char,,,,,Result Qualifier,Exp,"Result of the ECG measurement or finding as originally received or collected. Examples of expected values are ""62"" or ""0.151"" when the result is an interval or measurement, or ""ATRIAL FIBRILLATION"" or ""QT PROLONGATION"" when the result is a finding."
Findings,EG,16.0,Findings,EG,EGORRESU,Original Units,Char,C71620,,,,Variable Qualifier,Perm,"Original units in which the data were collected. The unit for EGORRES. Examples: ""sec"", ""msec""."
Findings,EG,17.0,Findings,EG,EGSTRESC,Character Result/Finding in Std Format,Char,C71150; C120522; C101834,,,,Result Qualifier,Exp,"Contains the result value for all findings copied or derived from EGORRES, in a standard format or standard units. EGSTRESC should store all results or findings in character format; if results are numeric, they should also be stored in numeric format in EGSTRESN. For example, if a test has results of 62 beats/min, then EGORRES = ""62"", EGORRESU = ""beats/min"", EGSTRESC = ""62"", EGSTRESN = 62, and EGSTRESU = ""beats/min"" . For other examples, see Original and Standardized Results. Additional examples of result data: ""SINUS BRADYCARDIA"", ""ATRIAL FLUTTER"", ""ATRIAL FIBRILLATION"". \n Test results are in 3 separate codelists: EGSTRESC for abnormal test results based on regular 10-second ECGs; HESTRESC for abnormal test results based on Holter monitoring, and NORMABNM for generic test results and/or responses to EGTEST = ""Interpretation""."
Findings,EG,18.0,Findings,EG,EGSTRESN,Numeric Result/Finding in Standard Units,Num,,,,,Result Qualifier,Perm,Used for continuous or numeric results or findings in standard format; copied in numeric format from EGSTRESC. EGSTRESN should store all numeric test results or findings.
Findings,EG,19.0,Findings,EG,EGSTRESU,Standard Units,Char,C71620,,,,Variable Qualifier,Perm,Standardized units used for EGSTRESC and EGSTRESN.
Findings,EG,20.0,Findings,EG,EGSTAT,Completion Status,Char,C66789,,,,Record Qualifier,Perm,"Used to indicate an ECG was not done, or an ECG measurement was not taken. Should be null if a result exists in EGORRES."
Findings,EG,21.0,Findings,EG,EGREASND,Reason ECG Not Done,Char,,,,,Record Qualifier,Perm,"Describes why a measurement or test was not performed. Examples: ""BROKEN EQUIPMENT"", ""SUBJECT REFUSED"". Used in conjunction with EGSTAT when value is ""NOT DONE""."
Findings,EG,22.0,Findings,EG,EGXFN,ECG External File Path,Char,,,,,Record Qualifier,Perm,File name and path for the external ECG waveform file.
Findings,EG,23.0,Findings,EG,EGNAM,Vendor Name,Char,,,,,Record Qualifier,Perm,Name or identifier of the laboratory or vendor providing the test results.
Findings,EG,24.0,Findings,EG,EGMETHOD,Method of Test or Examination,Char,C71151,,,,Record Qualifier,Perm,"Method of the ECG test. Example: ""12-LEAD STANDARD""."
Findings,EG,25.0,Findings,EG,EGLEAD,Lead Location Used for Measurement,Char,C90013,,,,Record Qualifier,Perm,"The lead used for the measurement. Examples: ""LEAD 1"", ""LEAD 2"", ""LEAD rV2"", ""LEAD V1""."
Findings,EG,26.0,Findings,EG,EGLOBXFL,Last Observation Before Exposure Flag,Char,C66742,,,,Record Qualifier,Exp,"Operationally derived indicator used to identify the last non-missing value prior to RFXSTDTC. The value should be ""Y"" or null."
Findings,EG,27.0,Findings,EG,EGBLFL,Baseline Flag,Char,C66742,,,,Record Qualifier,Perm,"Indicator used to identify a baseline value. Should be ""Y"" or null. Note that EGBLFL is retained for backward compatibility. The authoritative baseline for statistical analysis is in an ADaM dataset."
Findings,EG,28.0,Findings,EG,EGDRVFL,Derived Flag,Char,C66742,,,,Record Qualifier,Perm,"Used to indicate a derived record. The value should be ""Y"" or null. Records that represent the average of other records, or that do not come from the CRF, or are not as originally collected or received are examples of records that would be derived for the submission datasets. If EGDRVFL=""Y"", then EGORRES could be null, with EGSTRESC and EGSTRESN (if the result is numeric) having the derived value."
Findings,EG,29.0,Findings,EG,EGEVAL,Evaluator,Char,C78735,,,,Record Qualifier,Perm,"Role of the person who provided the evaluation. Used only for results that are subjective (e.g., assigned by a person or a group). Should be null for records that contain collected or derived data. Examples: ""INVESTIGATOR"", ""ADJUDICATION COMMITTEE"", ""VENDOR""."
Findings,EG,30.0,Findings,EG,EGEVALID,Evaluator Identifier,Char,C96777,,,,Variable Qualifier,Perm,"Used to distinguish multiple evaluators with the same role recorded in EGEVAL. Examples: ""RADIOLOGIST 1"" or ""RADIOLOGIST 2""."
Findings,EG,31.0,Findings,EG,EGCLSIG,"Clinically Significant, Collected",Char,C66742,,,,Record Qualifier,Perm,Used to indicate whether a collected observation is clinically significant based on judgment.
Findings,EG,32.0,Findings,EG,EGREPNUM,Repetition Number,Num,,,,,Record Qualifier,Perm,"The incidence number of a test that is repeated within a given timeframe for the same test. The level of granularity can vary (e.g., within a time point, within a visit). Examples: multiple measurements of blood pressure, multiple analyses of a sample."
Findings,EG,33.0,Findings,EG,VISITNUM,Visit Number,Num,,,,,Timing,Exp,"Clinical encounter number. Numeric version of VISIT, used for sorting."
Findings,EG,34.0,Findings,EG,VISIT,Visit Name,Char,,,,,Timing,Perm,Protocol-defined description of clinical encounter. May be used in addition to VISITNUM and/or VISITDY.
Findings,EG,35.0,Findings,EG,VISITDY,Planned Study Day of Visit,Num,,,,,Timing,Perm,Planned study day of the visit based upon RFSTDTC in Demographics.
Findings,EG,36.0,Findings,EG,TAETORD,Planned Order of Element within Arm,Num,,,,,Timing,Perm,Number that gives the planned order of the element within the arm for the element in which the assessment was made.
Findings,EG,37.0,Findings,EG,EPOCH,Epoch,Char,C99079,,,,Timing,Perm,Epoch associated with the date/time at which the assessment was made.
Findings,EG,38.0,Findings,EG,EGDTC,Date/Time of ECG,Char,,,ISO 8601 datetime or interval,,Timing,Exp,Date/Time of ECG.
Findings,EG,39.0,Findings,EG,EGDY,Study Day of ECG,Num,,,,,Timing,Perm,"Study day of the ECG, measured as integer days. Algorithm for calculations must be relative to the sponsor-defined RFSTDTC variable in Demographics."
Findings,EG,40.0,Findings,EG,EGTPT,Planned Time Point Name,Char,,,,,Timing,Perm,"Text description of time when measurement should be taken. This may be represented as an elapsed time relative to a fixed reference point, such as time of last dose. See EGTPTNUM and EGTPTREF. Examples: ""Start"", ""5 min post""."
Findings,EG,41.0,Findings,EG,EGTPTNUM,Planned Time Point Number,Num,,,,,Timing,Perm,Numerical version of EGTPT to aid in sorting.
Findings,EG,42.0,Findings,EG,EGELTM,Planned Elapsed Time from Time Point Ref,Char,,,ISO 8601 duration,,Timing,Perm,"Planned elapsed time (in ISO 8601) relative to a fixed time point reference (EGTPTREF). Not a clock time or a date time variable. Represented as an ISO 8601 duration. Examples: ""-PT15M"" to represent the period of 15 minutes prior to the reference point indicated by EGTPTREF, ""PT8H"" to represent the period of 8 hours after the reference point indicated by EGTPTREF."
Findings,EG,43.0,Findings,EG,EGTPTREF,Time Point Reference,Char,,,,,Timing,Perm,"Name of the fixed reference point referred to by EGELTM, EGTPTNUM, and EGTPT. Examples: ""PREVIOUS DOSE"", ""PREVIOUS MEAL""."
Findings,EG,44.0,Findings,EG,EGRFTDTC,Date/Time of Reference Time Point,Char,,,ISO 8601 datetime or interval,,Timing,Perm,Date/time for a fixed reference time point defined by EGTPTREF.
Findings,FT,1.0,Findings,FT,STUDYID,Study Identifier,Char,,,,,Identifier,Req,Unique identifier for a study.
Findings,FT,2.0,Findings,FT,DOMAIN,Domain Abbreviation,Char,,,,FT,Identifier,Req,Two-character abbreviation for the domain.
Findings,FT,3.0,Findings,FT,USUBJID,Unique Subject Identifier,Char,,,,,Identifier,Req,Identifier used to uniquely identify a subject across all studies for all applications or submissions involving the product.
Findings,FT,4.0,Findings,FT,FTSEQ,Sequence Number,Num,,,,,Identifier,Req,Sequence number to ensure uniqueness of records within a dataset for a subject. May be any valid number.
Findings,FT,5.0,Findings,FT,FTGRPID,Group ID,Char,,,,,Identifier,Perm,"Optional group identifier, used to link together a block of related records within a subject in a domain."
Findings,FT,6.0,Findings,FT,FTREFID,Reference ID,Char,,,,,Identifier,Perm,Optional internal or external identifier.
Findings,FT,7.0,Findings,FT,FTSPID,Sponsor-Defined Identifier,Char,,,,,Identifier,Perm,Sponsor-defined identifier. May be preprinted on the CRF as an explicit line identifier or defined in the sponsor's operational database. Example: Line number on the Test page.
Findings,FT,8.0,Findings,FT,FTTESTCD,Short Name of Test,Char,,,,,Topic,Req,"Short character value for FTTEST, which can be used as a column name when converting a dataset from a vertical format to a horizontal format. The value cannot be longer than 8 characters, nor can it start with a number (e.g., ""1TEST"" is not valid). FTTESTCD cannot contain characters other than letters, numbers, or underscores. \n Controlled terminology for FTTESTCD is published in separate codelists for each instrument. See https://www.cdisc.org/standards/terminology/controlled-terminology for values for FTTESTCD. Examples: ""W250101"", ""W25F0102""."
Findings,FT,9.0,Findings,FT,FTTEST,Name of Test,Char,,,,,Synonym Qualifier,Req,"Verbatim name of the question used to obtain the finding. The value in FTTEST cannot be longer than 40 characters. \n Controlled terminology for FTTEST is published in separate codelists for each instrument. See https://www.cdisc.org/standards/terminology/controlled-terminology for values for FTTEST. Examples: ""W2501-25 Foot Walk Time"", ""W25F-More Than Two Attempts""."
Findings,FT,10.0,Findings,FT,FTCAT,Category,Char,C115304,,,,Grouping Qualifier,Req,Used to specify the functional test in which the functional test question identified by FTTEST and FTTESTCD was included.
Findings,FT,11.0,Findings,FT,FTSCAT,Subcategory,Char,,,,,Grouping Qualifier,Perm,Used to define a further categorization of FTCAT values.
Findings,FT,12.0,Findings,FT,FTPOS,Position of Subject During Observation,Char,C71148,,,,Record Qualifier,Perm,"Position of the subject during the test. Examples: ""SUPINE"", ""STANDING"", ""SITTING""."
Findings,FT,13.0,Findings,FT,FTORRES,Result or Finding in Original Units,Char,,,,,Result Qualifier,Exp,Result of the measurement or finding as originally received or collected.
Findings,FT,14.0,Findings,FT,FTORRESU,Original Units,Char,C71620,,,,Variable Qualifier,Perm,Original units in which the data were collected. Unit for FTORRES.
Findings,FT,15.0,Findings,FT,FTSTRESC,Result or Finding in Standard Format,Char,,,,,Result Qualifier,Exp,"Contains the result value for all findings, copied or derived from FTORRES in a standard format or in standard units. FTSTRESC should store all results or findings in character format; if results are numeric, they should also be stored in numeric format in FTSTRESN."
Findings,FT,16.0,Findings,FT,FTSTRESN,Numeric Result/Finding in Standard Units,Num,,,,,Result Qualifier,Perm,Used for continuous or numeric results or findings in standard format; copied in numeric format from FTSTRESC. FTSTRESN should store all numeric test results or findings.
Findings,FT,17.0,Findings,FT,FTSTRESU,Standard Units,Char,C71620,,,,Variable Qualifier,Perm,Standardized units used for FTSTRESC and FTSTRESN.
Findings,FT,18.0,Findings,FT,FTSTAT,Completion Status,Char,C66789,,,,Record Qualifier,Perm,"Used to indicate that a test was not done, or a test was attempted but did not generate a result. Should be null or have a value of ""NOT DONE""."
Findings,FT,19.0,Findings,FT,FTREASND,Reason Not Done,Char,,,,,Record Qualifier,Perm,"Describes why a test was not done, or a test was attempted but did not generate a result. Used in conjunction with FTSTAT when value is ""NOT DONE""."
Findings,FT,20.0,Findings,FT,FTXFN,External File Path,Char,,,,,Record Qualifier,Perm,File path to an external file.
Findings,FT,21.0,Findings,FT,FTNAM,Vendor Name,Char,,,,,Record Qualifier,Perm,Name or identifier of the vendor or laboratory that provided the test results.
Findings,FT,22.0,Findings,FT,FTMETHOD,Method of Test or Examination,Char,C158113,,,,Record Qualifier,Perm,Method of the test or examination.
Findings,FT,23.0,Findings,FT,FTLOBXFL,Last Observation Before Exposure Flag,Char,C66742,,,,Record Qualifier,Exp,"Operationally-derived indicator used to identify the last non-missing value prior to RFXSTDTC. The value should be ""Y"" or null."
Findings,FT,24.0,Findings,FT,FTBLFL,Baseline Flag,Char,C66742,,,,Record Qualifier,Perm,"A baseline defined by the sponsor (could be derived in the same manner as FTLOBXFL or ABLFL, but is not required to be). The value should be ""Y"" or null. Note that FTBLFL is retained for backward compatibility. The authoritative baseline flag for statistical analysis is in an ADaM dataset."
Findings,FT,25.0,Findings,FT,FTDRVFL,Derived Flag,Char,C66742,,,,Record Qualifier,Perm,"Used to indicate a derived record (e.g., a record that represents the average of other records such as a computed baseline). Should be ""Y"" or null."
Findings,FT,26.0,Findings,FT,FTREPNUM,Repetition Number,Num,,,,,Record Qualifier,Perm,"The incidence number of a test that is repeated within a given timeframe for the same test. The level of granularity can vary (e.g., within a time point, within a visit). Examples: multiple measurements of blood pressure, multiple analyses of a sample."
Findings,FT,27.0,Findings,FT,VISITNUM,Visit Number,Num,,,,,Timing,Exp,"Clinical encounter number. Numeric version of VISIT, used for sorting."
Findings,FT,28.0,Findings,FT,VISIT,Visit Name,Char,,,,,Timing,Perm,Protocol-defined description of a clinical encounter.
Findings,FT,29.0,Findings,FT,VISITDY,Planned Study Day of Visit,Num,,,,,Timing,Perm,Planned study day of VISIT based upon RFSTDTC in Demographics. Should be an integer.
Findings,FT,30.0,Findings,FT,TAETORD,Planned Order of Element within Arm,Num,,,,,Timing,Perm,Number that gives the planned order of the element within the arm for the element in which the assessment was made.
Findings,FT,31.0,Findings,FT,EPOCH,Epoch,Char,C99079,,,,Timing,Perm,Epoch associated with the observation date/time of the functional tests finding.
Findings,FT,32.0,Findings,FT,FTDTC,Date/Time of Test,Char,,,ISO 8601 datetime or interval,,Timing,Exp,Collection date and time of functional test.
Findings,FT,33.0,Findings,FT,FTDY,Study Day of Test,Num,,,,,Timing,Perm,Actual study day of test expressed in integer days relative to the sponsor-defined RFSTDTC in Demographics.
Findings,FT,34.0,Findings,FT,FTTPT,Planned Time Point Name,Char,,,,,Timing,Perm,"Text description of time when a measurement or observation should be taken, as defined in the protocol. This may be represented as an elapsed time relative to a fixed reference point, such as time of last dose. See FTTPTNUM and FTTPTREF."
Findings,FT,35.0,Findings,FT,FTTPTNUM,Planned Time Point Number,Num,,,,,Timing,Perm,Numeric version of planned time point used in sorting.
Findings,FT,36.0,Findings,FT,FTELTM,Planned Elapsed Time from Time Point Ref,Char,,,ISO 8601 duration,,Timing,Perm,"Planned elapsed time relative to a planned fixed reference (FTTPTREF). Not a clock time or a date/time variable, but an interval, represented as ISO duration."
Findings,FT,37.0,Findings,FT,FTTPTREF,Time Point Reference,Char,,,,,Timing,Perm,"Description of the fixed reference point referred to by FTELTM, FTTPTNUM, and FTTPT. Examples: ""PREVIOUS DOSE"", ""PREVIOUS MEAL""."
Findings,FT,38.0,Findings,FT,FTRFTDTC,Date/Time of Reference Time Point,Char,,,ISO 8601 datetime or interval,,Timing,Perm,Date/time for a fixed reference time point defined by FTTPTREF.
Findings,GF,1.0,Findings,GF,STUDYID,Study Identifier,Char,,,,,Identifier,Req,Unique identifier for a study.
Findings,GF,2.0,Findings,GF,DOMAIN,Domain Abbreviation,Char,,,,GF,Identifier,Req,Two-character abbreviation for the domain.
Findings,GF,3.0,Findings,GF,USUBJID,Unique Subject Identifier,Char,,,,,Identifier,Req,Identifier used to uniquely identify a subject across all studies for all applications or submissions involving the product.
Findings,GF,4.0,Findings,GF,SPDEVID,Sponsor Device Identifier,Char,,,,,Identifier,Perm,Sponsor-defined identifier for a device.
Findings,GF,5.0,Findings,GF,NHOID,Non-Host Organism Identifier,Char,,,,,Identifier,Perm,"Sponsor-defined identifier for a non-host organism which should only be used when the organism is the subject of the TEST. This variable should be populated with an intuitive name based on the identity of the non-host organism as reported by a lab (e.g., ""A/California/7/2009 (H1N1)""). It is not to be used as a qualifier of the result in the record on which it appears."
Findings,GF,6.0,Findings,GF,GFSEQ,Sequence Number,Num,,,,,Identifier,Req,Sequence number to ensure uniqueness of records within a dataset for a subject. May be any valid number (including decimals) and does not have to start at 1.
Findings,GF,7.0,Findings,GF,GFGRPID,Group ID,Char,,,,,Identifier,Perm,Used to link together a block of related records within a subject in a domain.
Findings,GF,8.0,Findings,GF,GFREFID,Reference ID,Char,,,,,Identifier,Exp,A unique identifier for the assayed genetic specimen.
Findings,GF,9.0,Findings,GF,GFSPID,Sponsor-Defined Identifier,Char,,,,,Identifier,Perm,Sponsor-defined identifier.
Findings,GF,10.0,Findings,GF,GFLNKID,Link ID,Char,,,,,Identifier,Perm,Identifier used to link related records across domains. This may be a one-to-one or a one-to-many relationship.
Findings,GF,11.0,Findings,GF,GFLNKGRP,Link Group ID,Char,,,,,Identifier,Perm,Identifier used to link related records across domains. This will usually be a many-to-one relationship.
Findings,GF,12.0,Findings,GF,GFTESTCD,Short Name of Genomic Measurement,Char,C181178,,,,Topic,Req,"Short name of the measurement, test, or examination described in GFTEST. It can be used as a column name when converting a dataset from a vertical to a horizontal format. The value in GFTESTCD cannot be longer than 8 characters, nor can it start with a number (e.g., ""1TEST"" is not valid). GFTESTCD cannot contain characters other than letters, numbers, or underscores."
Findings,GF,13.0,Findings,GF,GFTEST,Name of Genomic Measurement,Char,C181179,,,,Synonym Qualifier,Req,Long name for GFTESTCD. The value in GFTEST cannot be longer than 40 characters.
Findings,GF,14.0,Findings,GF,GFTSTDTL,"Measurement, Test, or Examination Detail",Char,C181180,,,,Variable Qualifier,Perm,Description of a reportable qualifying the assessment in GFTESTCD and GFTEST.
Findings,GF,15.0,Findings,GF,GFCAT,Category for Genomic Finding,Char,,,,,Grouping Qualifier,Perm,Used to define a category of topic-variable values.
Findings,GF,16.0,Findings,GF,GFSCAT,Subcategory for Genomic Finding,Char,,,,,Grouping Qualifier,Perm,Used to define a further categorization of GFCAT values.
Findings,GF,17.0,Findings,GF,GFORRES,Result or Finding in Original Units,Char,,,,,Result Qualifier,Exp,Result of the measurement or finding as originally received or collected.
Findings,GF,18.0,Findings,GF,GFORRESU,Original Units,Char,C71620,,,,Variable Qualifier,Perm,Unit for GFORRES.
Findings,GF,19.0,Findings,GF,GFORREF,Reference Result in Original Units,Char,,,,,Variable Qualifier,Perm,"Reference value for the result or finding as originally received or collected. GFORREF uses the same units as GFORRES, if applicable."
Findings,GF,20.0,Findings,GF,GFSTRESC,Result or Finding in Standard Format,Char,,,,,Result Qualifier,Exp,"Contains the result value for all findings, copied or derived from GFORRES, in a standard format or in standard units. GFSTRESC should store all results or findings in character format; if results are numeric, they should also be stored in numeric format in GFSTRESN."
Findings,GF,21.0,Findings,GF,GFSTRESN,Numeric Result/Finding in Standard Units,Num,,,,,Result Qualifier,Perm,Used for continuous or numeric results or findings in standard format; copied in numeric format from GFSTRESC. GFSTRESN should store all numeric test results or findings.
Findings,GF,22.0,Findings,GF,GFSTRESU,Standard Units,Char,C71620,,,,Variable Qualifier,Perm,"Standardized units used for GFSTRESC, GFSTRESN, GFSTREFC, and GFSTREFN."
Findings,GF,23.0,Findings,GF,GFSTREFC,Reference Result in Standard Format,Char,,,,,Variable Qualifier,Perm,Reference value for the result or finding copied or derived from GFORREF in a standard format.
Findings,GF,24.0,Findings,GF,GFSTREFN,Numeric Reference Result in Std Units,Num,,,,,Variable Qualifier,Perm,"Reference value for continuous or numeric results or findings in standard format or in standard units. GFSTREFN uses the same units as GFSTRESN, if applicable."
Findings,GF,25.0,Findings,GF,GFRESCAT,Result Category,Char,,,,,Variable Qualifier,Perm,Used to categorize the result of a finding.
Findings,GF,26.0,Findings,GF,GFINHERT,Inheritability,Char,C181177,,,,Variable Qualifier,Perm,Identifies whether the variation can be passed to the next generation.
Findings,GF,27.0,Findings,GF,GFGENREF,Genome Reference,Char,,,,,Variable Qualifier,Perm,"An identifier for the genome reference used to generate the reported result. For example, Genome Reference Consortium Human Build 38 patch release 13 may be represented as ""GRCh38.p13""."
Findings,GF,28.0,Findings,GF,GFCHROM,Chromosome Identifier,Char,,,,,Variable Qualifier,Perm,"The designation (name or number) of the chromosome or contig on which the variant or other feature appears (e.g., ""17""; ""X"")."
Findings,GF,29.0,Findings,GF,GFSYM,Genomic Symbol,Char,,,,,Variable Qualifier,Perm,A published symbol for the portion of the genome serving as a locus for the experiment/test.
Findings,GF,30.0,Findings,GF,GFSYMTYP,Genomic Symbol Type,Char,C181176,,,,Variable Qualifier,Perm,A description of the type of genomic entity that is represented by the published symbol in GFSYM.
Findings,GF,31.0,Findings,GF,GFGENLOC,Genetic Location,Char,,,,,Variable Qualifier,Perm,Specifies the location within a sequence for the observed value in GFORRES.
Findings,GF,32.0,Findings,GF,GFGENSR,Genetic Sub-Region,Char,,,,,Variable Qualifier,Perm,"The portion of the locus in which the variation was found. Examples: ""Exon 15"", ""Kinase domain""."
Findings,GF,33.0,Findings,GF,GFSEQID,Sequence Identifier \n,Char,,,,,Variable Qualifier,Perm,"A unique identifier for the sequence used as the reference to identify the genetic variation in the result. Examples: ""NM_001234"", ""ENSG00000182533"", ""ENST00000343849.2""."
Findings,GF,34.0,Findings,GF,GFPVRID,Published Variant Identifier,Char,,,,,Variable Qualifier,Perm,"A unique identifier for the variation that has been publicly characterized in an external database. Examples: ""rs2231142"", ""COSM41596""."
Findings,GF,35.0,Findings,GF,GFCOPYID,Copy Identifier,Char,,,,,Variable Qualifier,Perm,An arbitrary identifier used to differentiate between copies of a genetic target of interest present on homologous chromosomes.
Findings,GF,36.0,Findings,GF,GFSTAT,Completion Status,Char,C66789,,,,Record Qualifier,Perm,"Used to indicate that a question was not asked or a test was not done, or a test was attempted but did not generate a result. Should be null or have a value of ""NOT DONE""."
Findings,GF,37.0,Findings,GF,GFREASND,Reason Test Not Done,Char,,,,,Record Qualifier,Perm,"Reason not done. Used in conjunction with GFSTAT when value is ""NOT DONE""."
Findings,GF,38.0,Findings,GF,GFXFN,External File Path,Char,,,,,Record Qualifier,Perm,The filename and/or path to external data not stored in the same format and possibly not the same location as the other data for a study.
Findings,GF,39.0,Findings,GF,GFNAM,Laboratory/Vendor Name,Char,,,,,Record Qualifier,Perm,"Name or identifier of the vendor that provided the test result. When more than 1 vendor is involved in the generation of the result, additional vendors should be represented as supplemental qualifiers."
Findings,GF,40.0,Findings,GF,GFSPEC,Specimen Material Type,Char,C111114,,,,Record Qualifier,Perm,Identifies the type of genetic material used for the measurement.
Findings,GF,41.0,Findings,GF,GFMETHOD,Method of Test or Examination,Char,C85492,,,,Record Qualifier,Exp,The test method by which the examination is performed by the wet lab in order to yield the result reported in the dataset.
Findings,GF,42.0,Findings,GF,GFRUNID,Run ID,Char,,,,,Record Qualifier,Perm,A unique identifier for a particular run of a test performed by the wet lab on a particular batch of samples. This identifier can be used to distinguish between records for the same test performed at different times.
Findings,GF,43.0,Findings,GF,GFANMETH,Analysis Method,Char,C181181,,,,Record Qualifier,Perm,The method of secondary processing performed by the dry lab to yield the result reported in the dataset.
Findings,GF,44.0,Findings,GF,GFBLFL,Baseline Flag,Char,C66742,,,,Record Qualifier,Perm,"Indicator used to identify a baseline value. Should be ""Y"" or null."
Findings,GF,45.0,Findings,GF,GFDRVFL,Derived Flag,Char,C66742,,,,Record Qualifier,Perm,"Used to indicate a derived record (e.g., a record that represents the average of other records such as a computed baseline). Should be ""Y"" or null."
Findings,GF,46.0,Findings,GF,GFLLOQ,Lower Limit of Quantitation,Num,,,,,Variable Qualifier,Perm,Indicates the lower limit of quantitation for an assay. Units will be those used for GFSTRESU.
Findings,GF,47.0,Findings,GF,GFREPNUM,Repetition Number,Num,,,,,Record Qualifier,Perm,The instance number of a test that is repeated within a given timeframe for the same test performed by the wet lab.
Findings,GF,48.0,Findings,GF,VISITNUM,Visit Number,Num,,,,,Timing,Exp,"Clinical encounter number. Numeric version of VISIT, used for sorting."
Findings,GF,49.0,Findings,GF,VISIT,Visit Name,Char,,,,,Timing,Perm,Protocol-defined description of clinical encounter.
Findings,GF,50.0,Findings,GF,VISITDY,Planned Study Day of Visit,Num,,,,,Timing,Perm,Planned study day of VISIT. Should be an integer.
Findings,GF,51.0,Findings,GF,GFDTC,Date/Time of Specimen Collection,Char,,,ISO 8601 datetime or interval,,Timing,Exp,Date and time of specimen collection.
Findings,GF,52.0,Findings,GF,GFDY,Study Day of Specimen Collection,Num,,,,,Timing,Perm,Actual study day of visit/collection/exam expressed in integer days relative to the sponsor-defined RFSTDTC in Demographics.
Findings,GF,53.0,Findings,GF,GFTPT,Planned Time Point Name,Char,,,,,Timing,Perm,"Text description of time when a measurement or observation should be taken as defined in the protocol. This may be represented as an elapsed time relative to a fixed reference point, such as time of last dose. See GFTPTNUM and GFTPTREF."
Findings,GF,54.0,Findings,GF,GFTPTNUM,Planned Time Point Number,Num,,,,,Timing,Perm,Numerical version of GFTPT used in sorting.
Findings,GF,55.0,Findings,GF,GFELTM,Planned Elapsed Time from Time Point Ref,Char,,,ISO 8601 duration,,Timing,Perm,"Elapsed time relative to a planned fixed reference (GFTPTREF). This variable is useful where there are repetitive measures. Not a clock time or a date time variable, but an interval, represented as ISO duration."
Findings,GF,56.0,Findings,GF,GFTPTREF,Time Point Reference,Char,,,,,Timing,Perm,"Name of the fixed reference point referred to by GFELTM, GFTPTNUM, and GFTPT. Examples: ""PREVIOUS DOSE"", ""PREVIOUS MEAL""."
Findings,GF,57.0,Findings,GF,GFRFTDTC,Date/Time of Reference Time Point,Char,,,ISO 8601 datetime or interval,,Timing,Perm,Date/time for a fixed reference time point defined by GFTPTREF.
Findings,IE,1.0,Findings,IE,STUDYID,Study Identifier,Char,,,,,Identifier,Req,Unique identifier for a study.
Findings,IE,2.0,Findings,IE,DOMAIN,Domain Abbreviation,Char,,,,IE,Identifier,Req,Two-character abbreviation for the domain.
Findings,IE,3.0,Findings,IE,USUBJID,Unique Subject Identifier,Char,,,,,Identifier,Req,Identifier used to uniquely identify a subject across all studies for all applications or submissions involving the product.
Findings,IE,4.0,Findings,IE,IESEQ,Sequence Number,Num,,,,,Identifier,Req,Sequence number given to ensure uniqueness of subject records within a domain. May be any valid number.
Findings,IE,5.0,Findings,IE,IESPID,Sponsor-Defined Identifier,Char,,,,,Identifier,Perm,Sponsor-defined reference number. May be preprinted on the CRF as an explicit line identifier or defined in the sponsor's operational database. Example: Inclusion or exclusion criteria number from CRF.
Findings,IE,6.0,Findings,IE,IETESTCD,Inclusion/Exclusion Criterion Short Name,Char,,,,,Topic,Req,"Short name of the criterion described in IETEST. The value in IETESTCD cannot be longer than 8 characters, nor can it start with a number (e.g., ""1TEST"" is not valid). IETESTCD cannot contain characters other than letters, numbers, or underscores. Examples: ""IN01"", ""EX01""."
Findings,IE,7.0,Findings,IE,IETEST,Inclusion/Exclusion Criterion,Char,,,,,Synonym Qualifier,Req,Verbatim description of the inclusion or exclusion criterion that was the exception for the subject within the study. IETEST cannot be longer than 200 characters.
Findings,IE,8.0,Findings,IE,IECAT,Inclusion/Exclusion Category,Char,C66797,,,,Grouping Qualifier,Req,Used to define a category of related records across subjects.
Findings,IE,9.0,Findings,IE,IESCAT,Inclusion/Exclusion Subcategory,Char,,,,,Grouping Qualifier,Perm,"A further categorization of the exception criterion. Can be used to distinguish criteria for a sub-study or for to categorize as a major or minor exceptions. Examples: ""MAJOR"", ""MINOR""."
Findings,IE,10.0,Findings,IE,IEORRES,I/E Criterion Original Result,Char,C66742,,,,Result Qualifier,Req,"Original response to inclusion/exclusion criterion question, i.e., whether the inclusion or exclusion criterion was met."
Findings,IE,11.0,Findings,IE,IESTRESC,I/E Criterion Result in Std Format,Char,C66742,,,,Result Qualifier,Req,"Response to inclusion/exclusion criterion result, in standard format."
Findings,IE,12.0,Findings,IE,VISITNUM,Visit Number,Num,,,,,Timing,Perm,"Clinical encounter number. Numeric version of VISIT, used for sorting."
Findings,IE,13.0,Findings,IE,VISIT,Visit Name,Char,,,,,Timing,Perm,Protocol-defined description of clinical encounter. May be used in addition to VISITNUM and/or VISITDY.
Findings,IE,14.0,Findings,IE,VISITDY,Planned Study Day of Visit,Num,,,,,Timing,Perm,Planned study day of the visit based upon RFSTDTC in Demographics.
Findings,IE,15.0,Findings,IE,TAETORD,Planned Order of Element within Arm,Num,,,,,Timing,Perm,Number that gives the planned order of the element within the arm for the element in which the assessment was made.
Findings,IE,16.0,Findings,IE,EPOCH,Epoch,Char,C99079,,,,Timing,Perm,Epoch associated with the observation date/time of the inclusion/exclusion finding.
Findings,IE,17.0,Findings,IE,IEDTC,Date/Time of Collection,Char,,,ISO 8601 datetime or interval,,Timing,Perm,Collection date and time of the inclusion/exclusion criterion represented in ISO 8601 character format.
Findings,IE,18.0,Findings,IE,IEDY,Study Day of Collection,Num,,,,,Timing,Perm,"Study day of collection of the inclusion/exclusion exceptions, measured as integer days. Algorithm for calculations must be relative to the sponsor-defined RFSTDTC variable in Demographics. This formula should be consistent across the submission."
Findings,IS,1.0,Findings,IS,STUDYID,Study Identifier,Char,,,,,Identifier,Req,Unique identifier for a study.
Findings,IS,2.0,Findings,IS,DOMAIN,Domain Abbreviation,Char,,,,IS,Identifier,Req,Two-character abbreviation for the domain.
Findings,IS,3.0,Findings,IS,USUBJID,Unique Subject Identifier,Char,,,,,Identifier,Req,Identifier used to uniquely identify a subject across all studies for all applications or submissions involving the product.
Findings,IS,4.0,Findings,IS,NHOID,Non-host Organism ID,Char,,,,,Identifier,Perm,"Sponsor-defined identifier for a non-host organism which should only be used when the organism is the subject of the TEST. This variable should be populated with an intuitive name based on the identity of the non-host organism as reported by a lab (e.g., ""A/California/7/2009 (H1N1)""). It is not to be used as a qualifier of the result in the record on which it appears."
Findings,IS,5.0,Findings,IS,ISSEQ,Sequence Number,Num,,,,,Identifier,Req,Sequence number to ensure uniqueness of records within a dataset for a subject. May be any valid number (including decimals) and does not have to start at 1.
Findings,IS,6.0,Findings,IS,ISGRPID,Group ID,Char,,,,,Identifier,Perm,Used to tie together a block of related records in a single domain for a subject.
Findings,IS,7.0,Findings,IS,ISREFID,Reference ID,Char,,,,,Identifier,Perm,"Internal or external specimen identifier. Example: ""458975-01""."
Findings,IS,8.0,Findings,IS,ISSPID,Sponsor-Defined Identifier,Char,,,,,Identifier,Perm,Sponsor-defined identifier.
Findings,IS,9.0,Findings,IS,ISTESTCD,Immunogenicity Test/Exam Short Name,Char,C120525,,,,Topic,Req,"Short name of the measurement, test, or examination described in ISTEST. It can be used as a column name when converting a dataset from a vertical to a horizontal format. The value in ISTESTCD cannot be longer than 8 characters, nor can it start with a number (e.g., ""1TEST"" is not valid). ISTESTCD cannot contain characters other than letters, numbers, or underscores."
Findings,IS,10.0,Findings,IS,ISTEST,Immunogenicity Test or Examination Name,Char,C120526,,,,Synonym Qualifier,Req,"Verbatim name of the test or examination used to obtain the measurement or finding. The value in ISTEST cannot be longer than 40 characters. Example: ""Immunoglobulin E""."
Findings,IS,11.0,Findings,IS,ISTSTCND,Test Condition,Char,C181175,,,,Variable Qualifier,Perm,Identifies any planned condition imposed by the assay system on the specimen at the time the test is performed.
Findings,IS,12.0,Findings,IS,ISCNDAGT,Test Condition Agent,Char,,,,,Record Qualifier,Perm,"The textual description of the agent used to impose a test condition. Examples are different stimulating agents used in immunoassays such as those in the Interferon Gamma Response assay (e.g., Mycobacterium tuberculosis ESAT-6, CFP-10, TB 7.7, Mitogen)."
Findings,IS,13.0,Findings,IS,ISBDAGNT,Binding Agent,Char,C85491; C181169,,,,Variable Qualifier,Perm,"Text description of the agent that is binding to the entity in the ISTEST variable. ISBDAGNT is used to indicate that there is a binding relationship between the entities in the ISTEST and ISBDAGNT variables, regardless of direction. \n ISBDAGNT is not a method qualifier. It should only be used when the actual interest of the measurement is the binding interaction between the 2 entities in ISTEST and ISBDAGNT. In other words, the combination of ISTEST and ISBDAGNT should describe the entity or the analyte being measured, without the need for additional variables. \n The binding agent may be (but is not limited to) a test article, a portion of the test article, a related compound, an endogenous molecule, an allergen, or an infectious agent."
Findings,IS,14.0,Findings,IS,ISTSTOPO,Test Operational Objective,Char,C181170,,,,Variable Qualifier,Perm,"Text description of the high-level purpose of the test at the operational level. If populated, valid values are ""SCREEN"", ""CONFIRM"", and ""QUANTIFY""."
Findings,IS,15.0,Findings,IS,ISMSCBCE,Molecule Secreted by Cells,Char,,,,,Variable Qualifier,Perm,"Text description of the entity secreted by the cells represented in ISTEST. The combination of ISTEST and ISMSCBCE should describe the entity or the analyte being measured, without the need for additional variables."
Findings,IS,16.0,Findings,IS,ISTSTDTL,Test Detail,Char,,,,,Variable Qualifier,Perm,Further description of ISTESTCD and ISTEST.
Findings,IS,17.0,Findings,IS,ISCAT,Category for Immunogenicity Test,Char,,,,,Grouping Qualifier,Perm,"Used to define a category of topic-variable values across subjects. Example: ""SEROLOGY""."
Findings,IS,18.0,Findings,IS,ISSCAT,Subcategory for Immunogenicity Test,Char,,,,,Grouping Qualifier,Perm,A further categorization of ISCAT.
Findings,IS,19.0,Findings,IS,ISORRES,Results or Findings in Original Units,Char,,,,,Result Qualifier,Exp,Result of the measurement or finding as originally received or collected.
Findings,IS,20.0,Findings,IS,ISORRESU,Original Units,Char,C71620,,,,Variable Qualifier,Exp,"Original units in which the data were collected. The unit for ISORRES. Examples: ""Index Value"", ""gpELISA"", ""unit/mL""."
Findings,IS,21.0,Findings,IS,ISORNRLO,Reference Range Lower Limit in Orig Unit,Char,,,,,Variable Qualifier,Exp,Lower end of reference range for continuous measurement in original units. Should be populated only for continuous results.
Findings,IS,22.0,Findings,IS,ISORNRHI,Reference Range Upper Limit in Orig Unit,Char,,,,,Variable Qualifier,Exp,Upper end of reference range for continuous measurement in original units. Should be populated only for continuous results.
Findings,IS,23.0,Findings,IS,ISSTRESC,Character Result/Finding in Std Format,Char,,,,,Result Qualifier,Exp,"Contains the result value for all findings copied or derived from ISORRES, in a standard format or in standard units. ISSTRESC should store all results or findings in character format; if results are numeric, they should also be stored in numeric format in ISSTRESN."
Findings,IS,24.0,Findings,IS,ISSTRESN,Numeric Results/Findings in Std. Units,Num,,,,,Result Qualifier,Exp,Used for continuous or numeric results or findings in standard format; copied in numeric format from ISSTRESC. ISSTRESN should store all numeric test results or findings.
Findings,IS,25.0,Findings,IS,ISSTRESU,Standard Units,Char,C71620,,,,Variable Qualifier,Exp,"Standardized units used for ISSTRESC and ISSTRESN. Examples: ""Index Value"", ""gpELISA"", ""unit/mL""."
Findings,IS,26.0,Findings,IS,ISSTNRLO,Reference Range Lower Limit-Std Units,Num,,,,,Variable Qualifier,Exp,Lower end of reference range for continuous measurements for ISSTRESC/ISSTRESN in standardized units. Should be populated only for continuous results.
Findings,IS,27.0,Findings,IS,ISSTNRHI,Reference Range Upper Limit-Std Units,Num,,,,,Variable Qualifier,Exp,Upper end of reference range for continuous measurements in standardized units. Should be populated only for continuous results.
Findings,IS,28.0,Findings,IS,ISSTNRC,Reference Range for Char Rslt-Std Units,Char,,,,,Variable Qualifier,Perm,"For normal range values that are character in ordinal scale or if categorical ranges were supplied. Examples: ""-1 to +1"", ""NEGATIVE TO TRACE""."
Findings,IS,29.0,Findings,IS,ISNRIND,Reference Range Indicator,Char,C78736,,,,Variable Qualifier,Exp,"Indicates where the value falls with respect to reference range defined by ISORNRLO and ISORNRHI, ISSTNRLO and ISSTNRHI, or by ISSTNRC. Examples: ""NORMAL"", ""ABNORMAL"", ""HIGH"", ""LOW"". \n Sponsors should specify in the study metadata (Comments column in the Define-XML document) whether ISNRIND refers to the original or standard reference ranges and results. \n Should not be used to indicate clinical significance."
Findings,IS,30.0,Findings,IS,ISSTAT,Completion Status,Char,C66789,,,,Record Qualifier,Perm,Used to indicate a test was not done. Should be null if a result exists in ISORRES.
Findings,IS,31.0,Findings,IS,ISREASND,Reason Not Done,Char,,,,,Record Qualifier,Perm,"Describes why a measurement or test was not performed. Used in conjunction with ISSTAT when value is ""NOT DONE""."
Findings,IS,32.0,Findings,IS,ISNAM,Vendor Name,Char,,,,,Record Qualifier,Perm,Name or identifier of the laboratory or vendor who provided the test results.
Findings,IS,33.0,Findings,IS,ISSPEC,Specimen Type,Char,C78734,,,,Record Qualifier,Perm,"Defines the types of specimen used for a measurement. Example: ""SERUM""."
Findings,IS,34.0,Findings,IS,ISSPCCND,Specimen Condition,Char,C78733,,,,Record Qualifier,Perm,"Free or standardized text describing the condition of the specimen. Examples: ""HEMOLYZED"", ""ICTERIC"", ""LIPEMIC""."
Findings,IS,35.0,Findings,IS,ISSPCUFL,Specimen Usability for the Test,Char,C66742,,,,Record Qualifier,Perm,"Describes the usability of the specimen for the test. The value will be ""N"" if the specimen is not usable, and null if the specimen is usable."
Findings,IS,36.0,Findings,IS,ISMETHOD,Method of Test or Examination,Char,C85492,,,,Record Qualifier,Perm,"Method of the test or examination. Examples: ""ELISA"", ""ELISPOT""."
Findings,IS,37.0,Findings,IS,ISLOBXFL,Last Observation Before Exposure Flag,Char,C66742,,,,Record Qualifier,Perm,"Operationally derived indicator used to identify the last non-missing value prior to RFXSTDTC. The value should be ""Y"" or null."
Findings,IS,38.0,Findings,IS,ISBLFL,Baseline Flag,Char,C66742,,,,Record Qualifier,Perm,"Indicator used to identify a baseline value. Should be ""Y"" or null. Note that ISBLFL is retained for backward compatibility. The authoritative baseline for statistical analysis is in an ADaM dataset."
Findings,IS,39.0,Findings,IS,ISDRVFL,Derived Flag,Char,C66742,,,,Record Qualifier,Perm,"Used to indicate a derived record. The value should be ""Y"" or null. Examples of records that might be derived for the submission datasets include those that represent the average of other records, do not come from the CRF, or are not as originally received or collected. If ISDRVFL=""Y"", then ISORRES may be null, with ISSTRESC and (if numeric) ISSTRESN having the derived value."
Findings,IS,40.0,Findings,IS,ISLLOQ,Lower Limit of Quantitation,Num,,,,,Variable Qualifier,Exp,Indicates the lower limit of quantitation for an assay. Units will be those used for ISSTRESU.
Findings,IS,41.0,Findings,IS,VISITNUM,Visit Number,Num,,,,,Timing,Exp,"Clinical encounter number. Numeric version of VISIT, used for sorting."
Findings,IS,42.0,Findings,IS,VISIT,Visit Name,Char,,,,,Timing,Perm,Protocol-defined description of a clinical encounter. May be used in addition to VISITNUM and/or VISITDY.
Findings,IS,43.0,Findings,IS,VISITDY,Planned Study Day of Visit,Num,,,,,Timing,Perm,Planned study day of the visit based upon RFSTDTC in Demographics.
Findings,IS,44.0,Findings,IS,TAETORD,Planned Order of Element within Arm,Num,,,,,Timing,Perm,Number that gives the planned order of the element within the arm.
Findings,IS,45.0,Findings,IS,EPOCH,Epoch,Char,C99079,,,,Timing,Perm,"Epoch associated with the start date/time of the observation, or the date/time of collection if start date/time is not collected."
Findings,IS,46.0,Findings,IS,ISDTC,Date/Time of Collection,Char,,,ISO 8601 datetime or interval,,Timing,Exp,Collection date and time of an observation.
