STUDYID,DOMAIN,USUBJID,AESEQ,AETERM,AESEV,AESER,AEREL,AEOUT,AEACN,EPOCH,AESTDTC,AEENDTC,AESTDY,AEENDY
D6470C00005,AE,D6470C00005-0001,1,Injection site bruising,MILD,N,Y,NOT RECOVERED/NOT RESOLVED,DRUG WITHDRAWN,TREATMENT,2021-01-19,,31,
D6470C00005,AE,D6470C00005-0001,2,Fatigue,MILD,N,N,RECOVERING/RESOLVING,DRUG WITHDRAWN,TREATMENT,2020-12-30,2020-12-31,11,12
D6470C00005,AE,D6470C00005-0002,1,Injection site bruising,MODERATE,N,Y,NOT RECOVERED/NOT RESOLVED,DOSE NOT CHANGED,TREATMENT,2021-01-08,,4,
D6470C00005,AE,D6470C00005-0002,2,Nausea,MODERATE,N,N,NOT RECOVERED/NOT RESOLVED,DOSE NOT CHANGED,TREATMENT,2021-01-06,,2,
D6470C00005,AE,D6470C00005-0003,1,Dizziness,MODERATE,N,Y,RECOVERED/RESOLVED,DOSE NOT CHANGED,TREATMENT,2021-01-12,2021-01-16,19,23
D6470C00005,AE,D6470C00005-0003,2,Nausea,MODERATE,N,Y,NOT RECOVERED/NOT RESOLVED,DOSE NOT CHANGED,TREATMENT,2021-01-20,,27,
D6470C00005,AE,D6470C00005-0004,1,Dizziness,MODERATE,N,N,NOT RECOVERED/NOT RESOLVED,DOSE NOT CHANGED,TREATMENT,2021-01-15,,29,
D6470C00005,AE,D6470C00005-0007,1,Nausea,MILD,N,Y,NOT RECOVERED/NOT RESOLVED,DOSE NOT CHANGED,TREATMENT,2021-03-28,,26,
D6470C00005,AE,D6470C00005-0008,1,Hyperglycaemia,MODERATE,N,Y,RECOVERED/RESOLVED,DOSE NOT CHANGED,TREATMENT,2020-12-25,2020-12-28,2,5
D6470C00005,AE,D6470C00005-0010,1,Hyperglycaemia,MODERATE,N,Y,RECOVERING/RESOLVING,DOSE NOT CHANGED,TREATMENT,2021-03-28,2021-03-30,11,13
D6470C00005,AE,D6470C00005-0010,2,Hyperglycaemia,SEVERE,N,N,RECOVERED/RESOLVED,DOSE NOT CHANGED,TREATMENT,2021-03-24,2021-03-30,7,13
D6470C00005,AE,D6470C00005-0011,1,Injection site bruising,MODERATE,N,N,RECOVERING/RESOLVING,DOSE NOT CHANGED,TREATMENT,2021-03-06,2021-03-07,31,32
D6470C00005,AE,D6470C00005-0011,2,Injection site bruising,MILD,N,N,RECOVERING/RESOLVING,DRUG WITHDRAWN,TREATMENT,2021-02-15,2021-02-21,12,18
D6470C00005,AE,D6470C00005-0015,1,Insomnia,MILD,N,N,NOT RECOVERED/NOT RESOLVED,DOSE NOT CHANGED,TREATMENT,2021-01-09,,22,
D6470C00005,AE,D6470C00005-0015,2,Nausea,MILD,N,Y,RECOVERED/RESOLVED,DOSE NOT CHANGED,TREATMENT,2021-01-11,2021-01-15,24,28
D6470C00005,AE,D6470C00005-0019,1,Dyspepsia,SEVERE,N,Y,NOT RECOVERED/NOT RESOLVED,DOSE NOT CHANGED,TREATMENT,2021-03-02,,20,
D6470C00005,AE,D6470C00005-0019,2,Injection site bruising,MILD,N,N,RECOVERED/RESOLVED,DOSE NOT CHANGED,TREATMENT,2021-03-08,2021-03-14,26,32
D6470C00005,AE,D6470C00005-0019,3,Headache,MODERATE,N,N,RECOVERING/RESOLVING,DRUG WITHDRAWN,TREATMENT,2021-02-18,2021-02-23,8,13
D6470C00005,AE,D6470C00005-0021,1,Dyspepsia,MILD,N,N,NOT RECOVERED/NOT RESOLVED,DOSE NOT CHANGED,TREATMENT,2021-03-07,,11,
D6470C00005,AE,D6470C00005-0026,1,Fatigue,MILD,N,N,NOT RECOVERED/NOT RESOLVED,DOSE NOT CHANGED,TREATMENT,2021-03-06,,27,
D6470C00005,AE,D6470C00005-0026,2,Dyspepsia,MILD,N,N,RECOVERING/RESOLVING,DOSE NOT CHANGED,TREATMENT,2021-02-20,2021-02-26,13,19
D6470C00005,AE,D6470C00005-0030,1,Dyspepsia,MILD,N,N,RECOVERED/RESOLVED,DOSE NOT CHANGED,TREATMENT,2021-02-07,2021-02-13,22,28
D6470C00005,AE,D6470C00005-0030,2,Dizziness,MODERATE,N,Y,NOT RECOVERED/NOT RESOLVED,DOSE NOT CHANGED,TREATMENT,2021-01-20,,4,
D6470C00005,AE,D6470C00005-0031,1,Insomnia,MILD,N,Y,NOT RECOVERED/NOT RESOLVED,DOSE NOT CHANGED,TREATMENT,2021-01-14,,27,
D6470C00005,AE,D6470C00005-0031,2,Hyperglycaemia,SEVERE,N,N,RECOVERED/RESOLVED,DOSE NOT CHANGED,TREATMENT,2020-12-26,2020-12-27,8,9
D6470C00005,AE,D6470C00005-0031,3,Nausea,MILD,N,Y,RECOVERING/RESOLVING,DOSE NOT CHANGED,TREATMENT,2021-01-18,2021-01-20,31,33
D6470C00005,AE,D6470C00005-0032,1,Headache,MILD,N,Y,NOT RECOVERED/NOT RESOLVED,DOSE NOT CHANGED,TREATMENT,2020-12-26,,7,
D6470C00005,AE,D6470C00005-0032,2,Dizziness,MODERATE,N,Y,NOT RECOVERED/NOT RESOLVED,DRUG WITHDRAWN,TREATMENT,2021-01-01,,13,
D6470C00005,AE,D6470C00005-0034,1,Nausea,MODERATE,N,Y,RECOVERED/RESOLVED,DOSE NOT CHANGED,TREATMENT,2021-04-16,2021-04-19,12,15
D6470C00005,AE,D6470C00005-0035,1,Nausea,SEVERE,N,Y,NOT RECOVERED/NOT RESOLVED,DOSE NOT CHANGED,TREATMENT,2021-01-30,,8,
D6470C00005,AE,D6470C00005-0035,2,Fatigue,MILD,N,N,RECOVERING/RESOLVING,DOSE NOT CHANGED,TREATMENT,2021-02-09,2021-02-16,18,25
D6470C00005,AE,D6470C00005-0037,1,Nausea,MILD,N,N,NOT RECOVERED/NOT RESOLVED,DOSE NOT CHANGED,TREATMENT,2021-01-10,,14,
