STUDYID,DOMAIN,USUBJID,CMSEQ,CMTRT,CMDOSE,CMDOSU,CMROUTE,CMINDC,EPOCH,CMSTDTC,CMSTDY
D6470C00005,CM,D6470C00005-0001,1,METFORMIN,1000,mg,ORAL,Type 2 diabetes mellitus,TREATMENT,2019-06-20,-549
D6470C00005,CM,D6470C00005-0002,1,METFORMIN,850,mg,ORAL,Type 2 diabetes mellitus,TREATMENT,2019-07-22,-533
D6470C00005,CM,D6470C00005-0003,1,METFORMIN,1000,mg,ORAL,Type 2 diabetes mellitus,TREATMENT,2019-07-08,-536
D6470C00005,CM,D6470C00005-0003,2,DAPAGLIFLOZIN,10,mg,ORAL,Type 2 diabetes mellitus,TREATMENT,2020-08-12,-135
D6470C00005,CM,D6470C00005-0004,1,METFORMIN,850,mg,ORAL,Type 2 diabetes mellitus,TREATMENT,2018-10-12,-798
D6470C00005,CM,D6470C00005-0005,1,METFORMIN,1000,mg,ORAL,Type 2 diabetes mellitus,TREATMENT,2020-06-15,-258
D6470C00005,CM,D6470C00005-0006,1,METFORMIN,850,mg,ORAL,Type 2 diabetes mellitus,TREATMENT,2020-07-01,-274
D6470C00005,CM,D6470C00005-0007,1,METFORMIN,1000,mg,ORAL,Type 2 diabetes mellitus,TREATMENT,2019-11-01,-488
D6470C00005,CM,D6470C00005-0007,2,SITAGLIPTIN,100,mg,ORAL,Type 2 diabetes mellitus,TREATMENT,2020-06-03,-273
D6470C00005,CM,D6470C00005-0008,1,METFORMIN,850,mg,ORAL,Type 2 diabetes mellitus,TREATMENT,2020-05-28,-210
D6470C00005,CM,D6470C00005-0009,1,METFORMIN,850,mg,ORAL,Type 2 diabetes mellitus,TREATMENT,2020-02-10,-355
D6470C00005,CM,D6470C00005-0010,1,METFORMIN,1000,mg,ORAL,Type 2 diabetes mellitus,TREATMENT,2020-01-15,-428
D6470C00005,CM,D6470C00005-0011,1,METFORMIN,1000,mg,ORAL,Type 2 diabetes mellitus,TREATMENT,2019-06-29,-586
D6470C00005,CM,D6470C00005-0011,2,SITAGLIPTIN,100,mg,ORAL,Type 2 diabetes mellitus,TREATMENT,2020-08-17,-171
D6470C00005,CM,D6470C00005-0012,1,METFORMIN,850,mg,ORAL,Type 2 diabetes mellitus,TREATMENT,2019-05-01,-624
D6470C00005,CM,D6470C00005-0013,1,METFORMIN,1000,mg,ORAL,Type 2 diabetes mellitus,TREATMENT,2020-05-14,-315
D6470C00005,CM,D6470C00005-0014,1,METFORMIN,850,mg,ORAL,Type 2 diabetes mellitus,TREATMENT,2019-07-31,-570
D6470C00005,CM,D6470C00005-0015,1,METFORMIN,850,mg,ORAL,Type 2 diabetes mellitus,TREATMENT,2019-12-14,-371
D6470C00005,CM,D6470C00005-0016,1,METFORMIN,1000,mg,ORAL,Type 2 diabetes mellitus,TREATMENT,2020-03-28,-356
D6470C00005,CM,D6470C00005-0017,1,METFORMIN,500,mg,ORAL,Type 2 diabetes mellitus,TREATMENT,2019-09-26,-462
D6470C00005,CM,D6470C00005-0017,2,DAPAGLIFLOZIN,10,mg,ORAL,Type 2 diabetes mellitus,TREATMENT,2020-10-16,-76
D6470C00005,CM,D6470C00005-0018,1,METFORMIN,850,mg,ORAL,Type 2 diabetes mellitus,TREATMENT,2019-11-28,-494
D6470C00005,CM,D6470C00005-0019,1,METFORMIN,500,mg,ORAL,Type 2 diabetes mellitus,TREATMENT,2019-01-27,-746
D6470C00005,CM,D6470C00005-0020,1,METFORMIN,1000,mg,ORAL,Type 2 diabetes mellitus,TREATMENT,2019-01-04,-813
D6470C00005,CM,D6470C00005-0020,2,ATORVASTATIN,20,mg,ORAL,Comorbidity,TREATMENT,2021-01-27,-59
D6470C00005,CM,D6470C00005-0021,1,METFORMIN,1000,mg,ORAL,Type 2 diabetes mellitus,TREATMENT,2020-12-14,-73
D6470C00005,CM,D6470C00005-0021,2,SITAGLIPTIN,100,mg,ORAL,Type 2 diabetes mellitus,TREATMENT,2020-11-26,-91
D6470C00005,CM,D6470C00005-0022,1,METFORMIN,500,mg,ORAL,Type 2 diabetes mellitus,TREATMENT,2020-02-22,-396
D6470C00005,CM,D6470C00005-0022,2,DAPAGLIFLOZIN,10,mg,ORAL,Type 2 diabetes mellitus,TREATMENT,2020-10-08,-167
D6470C00005,CM,D6470C00005-0023,1,METFORMIN,850,mg,ORAL,Type 2 diabetes mellitus,TREATMENT,2020-01-25,-427
D6470C00005,CM,D6470C00005-0023,2,ATORVASTATIN,20,mg,ORAL,Comorbidity,TREATMENT,2021-02-09,-46
D6470C00005,CM,D6470C00005-0024,1,METFORMIN,1000,mg,ORAL,Type 2 diabetes mellitus,TREATMENT,2020-05-21,-266
D6470C00005,CM,D6470C00005-0025,1,METFORMIN,1000,mg,ORAL,Type 2 diabetes mellitus,TREATMENT,2019-06-25,-538
D6470C00005,CM,D6470C00005-0026,1,METFORMIN,850,mg,ORAL,Type 2 diabetes mellitus,TREATMENT,2019-11-13,-453
D6470C00005,CM,D6470C00005-0027,1,METFORMIN,1000,mg,ORAL,Type 2 diabetes mellitus,TREATMENT,2020-04-15,-275
D6470C00005,CM,D6470C00005-0027,2,DAPAGLIFLOZIN,10,mg,ORAL,Type 2 diabetes mellitus,TREATMENT,2020-09-06,-131
D6470C00005,CM,D6470C00005-0028,1,METFORMIN,850,mg,ORAL,Type 2 diabetes mellitus,TREATMENT,2019-12-05,-472
D6470C00005,CM,D6470C00005-0029,1,METFORMIN,1000,mg,ORAL,Type 2 diabetes mellitus,TREATMENT,2020-03-09,-376
D6470C00005,CM,D6470C00005-0030,1,METFORMIN,850,mg,ORAL,Type 2 diabetes mellitus,TREATMENT,2019-06-16,-581
D6470C00005,CM,D6470C00005-0031,1,METFORMIN,500,mg,ORAL,Type 2 diabetes mellitus,TREATMENT,2019-07-04,-534
D6470C00005,CM,D6470C00005-0031,2,SITAGLIPTIN,100,mg,ORAL,Type 2 diabetes mellitus,TREATMENT,2020-06-15,-187
D6470C00005,CM,D6470C00005-0032,1,METFORMIN,500,mg,ORAL,Type 2 diabetes mellitus,TREATMENT,2020-03-09,-286
D6470C00005,CM,D6470C00005-0032,2,ATORVASTATIN,20,mg,ORAL,Comorbidity,TREATMENT,2020-01-15,-340
D6470C00005,CM,D6470C00005-0033,1,METFORMIN,500,mg,ORAL,Type 2 diabetes mellitus,TREATMENT,2018-12-03,-738
D6470C00005,CM,D6470C00005-0034,1,METFORMIN,1000,mg,ORAL,Type 2 diabetes mellitus,TREATMENT,2020-10-22,-165
D6470C00005,CM,D6470C00005-0035,1,METFORMIN,1000,mg,ORAL,Type 2 diabetes mellitus,TREATMENT,2019-02-06,-717
D6470C00005,CM,D6470C00005-0035,2,ATORVASTATIN,20,mg,ORAL,Comorbidity,TREATMENT,2020-08-03,-173
D6470C00005,CM,D6470C00005-0036,1,METFORMIN,500,mg,ORAL,Type 2 diabetes mellitus,TREATMENT,2019-05-03,-606
D6470C00005,CM,D6470C00005-0037,1,METFORMIN,850,mg,ORAL,Type 2 diabetes mellitus,TREATMENT,2018-11-23,-766
D6470C00005,CM,D6470C00005-0038,1,METFORMIN,850,mg,ORAL,Type 2 diabetes mellitus,TREATMENT,2019-04-23,-704
D6470C00005,CM,D6470C00005-0038,2,SITAGLIPTIN,100,mg,ORAL,Type 2 diabetes mellitus,TREATMENT,2020-05-28,-303
D6470C00005,CM,D6470C00005-0039,1,METFORMIN,1000,mg,ORAL,Type 2 diabetes mellitus,TREATMENT,2019-01-04,-709
D6470C00005,CM,D6470C00005-0040,1,METFORMIN,500,mg,ORAL,Type 2 diabetes mellitus,TREATMENT,2018-11-30,-778
D6470C00005,CM,D6470C00005-0040,2,DAPAGLIFLOZIN,10,mg,ORAL,Type 2 diabetes mellitus,TREATMENT,2020-04-26,-265
