STUDYID,DOMAIN,USUBJID,SUBJID,RFSTDTC,RFENDTC,RFXSTDTC,RFXENDTC,SITEID,BRTHDTC,AGE,AGEU,SEX,RACE,ETHNIC,ARMCD,ARM,ACTARMCD,ACTARM,COUNTRY
D6470C00005,DM,D6470C00005-0001,0001,2020-12-20,2021-01-16,2020-12-20,2021-01-16,0003,1978-08-02,42,YEARS,F,WHITE,NOT HISPANIC OR LATINO,COHORT1,Cohort 1,COHORT1,Cohort 1,USA
D6470C00005,DM,D6470C00005-0002,0002,2021-01-05,2021-02-01,2021-01-05,2021-02-01,0001,1958-02-27,62,YEARS,F,ASIAN,NOT HISPANIC OR LATINO,COHORT1,Cohort 1,COHORT1,Cohort 1,USA
D6470C00005,DM,D6470C00005-0003,0003,2020-12-25,2021-01-21,2020-12-25,2021-01-21,0003,1973-06-05,47,YEARS,F,AMERICAN INDIAN OR ALASKA NATIVE,HISPANIC OR LATINO,COHORT1,Cohort 1,COHORT1,Cohort 1,USA
D6470C00005,DM,D6470C00005-0004,0004,2020-12-18,2021-01-14,2020-12-18,2021-01-14,0001,1975-12-26,45,YEARS,M,WHITE,NOT HISPANIC OR LATINO,COHORT1,Cohort 1,COHORT1,Cohort 1,USA
D6470C00005,DM,D6470C00005-0005,0005,2021-02-28,2021-03-27,2021-02-28,2021-03-27,0002,1964-10-12,57,YEARS,M,AMERICAN INDIAN OR ALASKA NATIVE,HISPANIC OR LATINO,COHORT1,Cohort 1,COHORT1,Cohort 1,USA
D6470C00005,DM,D6470C00005-0006,0006,2021-04-01,2021-04-28,2021-04-01,2021-04-28,0003,1977-02-21,44,YEARS,F,WHITE,HISPANIC OR LATINO,COHORT1,Cohort 1,COHORT1,Cohort 1,USA
D6470C00005,DM,D6470C00005-0007,0007,2021-03-03,2021-03-30,2021-03-03,2021-03-30,0001,1977-04-27,44,YEARS,F,BLACK OR AFRICAN AMERICAN,HISPANIC OR LATINO,COHORT1,Cohort 1,COHORT1,Cohort 1,USA
D6470C00005,DM,D6470C00005-0008,0008,2020-12-24,2021-01-20,2020-12-24,2021-01-20,0001,1947-11-09,73,YEARS,M,WHITE,NOT HISPANIC OR LATINO,COHORT1,Cohort 1,COHORT1,Cohort 1,USA
D6470C00005,DM,D6470C00005-0009,0009,2021-01-30,2021-02-26,2021-01-30,2021-02-26,0001,1964-06-20,57,YEARS,F,ASIAN,NOT HISPANIC OR LATINO,COHORT1,Cohort 1,COHORT1,Cohort 1,USA
D6470C00005,DM,D6470C00005-0010,0010,2021-03-18,2021-04-14,2021-03-18,2021-04-14,0003,1957-07-14,64,YEARS,F,ASIAN,HISPANIC OR LATINO,COHORT1,Cohort 1,COHORT1,Cohort 1,USA
D6470C00005,DM,D6470C00005-0011,0011,2021-02-04,2021-03-03,2021-02-04,2021-03-03,0003,1971-05-01,50,YEARS,M,ASIAN,NOT HISPANIC OR LATINO,COHORT1,Cohort 1,COHORT1,Cohort 1,USA
D6470C00005,DM,D6470C00005-0012,0012,2021-01-14,2021-02-10,2021-01-14,2021-02-10,0001,1955-02-18,66,YEARS,F,WHITE,HISPANIC OR LATINO,COHORT1,Cohort 1,COHORT1,Cohort 1,USA
D6470C00005,DM,D6470C00005-0013,0013,2021-03-25,2021-04-21,2021-03-25,2021-04-21,0003,1965-09-19,56,YEARS,M,ASIAN,HISPANIC OR LATINO,COHORT1,Cohort 1,COHORT1,Cohort 1,USA
D6470C00005,DM,D6470C00005-0014,0014,2021-02-20,2021-03-19,2021-02-20,2021-03-19,0003,1961-06-10,60,YEARS,F,ASIAN,NOT HISPANIC OR LATINO,COHORT1,Cohort 1,COHORT1,Cohort 1,USA
D6470C00005,DM,D6470C00005-0015,0015,2020-12-19,2021-01-15,2020-12-19,2021-01-15,0001,1962-12-23,58,YEARS,F,BLACK OR AFRICAN AMERICAN,NOT HISPANIC OR LATINO,COHORT1,Cohort 1,COHORT1,Cohort 1,USA
D6470C00005,DM,D6470C00005-0016,0016,2021-03-19,2021-04-15,2021-03-19,2021-04-15,0002,1977-03-01,44,YEARS,M,AMERICAN INDIAN OR ALASKA NATIVE,HISPANIC OR LATINO,COHORT1,Cohort 1,COHORT1,Cohort 1,USA
D6470C00005,DM,D6470C00005-0017,0017,2020-12-31,2021-01-27,2020-12-31,2021-01-27,0001,1951-04-15,69,YEARS,M,ASIAN,HISPANIC OR LATINO,COHORT1,Cohort 1,COHORT1,Cohort 1,USA
D6470C00005,DM,D6470C00005-0018,0018,2021-04-05,2021-05-02,2021-04-05,2021-05-02,0001,1968-06-24,53,YEARS,M,AMERICAN INDIAN OR ALASKA NATIVE,NOT HISPANIC OR LATINO,COHORT1,Cohort 1,COHORT1,Cohort 1,USA
D6470C00005,DM,D6470C00005-0019,0019,2021-02-11,2021-03-10,2021-02-11,2021-03-10,0002,1973-10-19,48,YEARS,M,AMERICAN INDIAN OR ALASKA NATIVE,NOT HISPANIC OR LATINO,COHORT1,Cohort 1,COHORT1,Cohort 1,USA
D6470C00005,DM,D6470C00005-0020,0020,2021-03-27,2021-04-23,2021-03-27,2021-04-23,0003,1961-09-15,60,YEARS,F,ASIAN,HISPANIC OR LATINO,COHORT1,Cohort 1,COHORT1,Cohort 1,USA
D6470C00005,DM,D6470C00005-0021,0021,2021-02-25,2021-03-24,2021-02-25,2021-03-24,0001,1979-12-22,42,YEARS,F,AMERICAN INDIAN OR ALASKA NATIVE,HISPANIC OR LATINO,COHORT1,Cohort 1,COHORT1,Cohort 1,USA
D6470C00005,DM,D6470C00005-0022,0022,2021-03-24,2021-04-20,2021-03-24,2021-04-20,0003,1962-02-26,59,YEARS,M,AMERICAN INDIAN OR ALASKA NATIVE,NOT HISPANIC OR LATINO,COHORT1,Cohort 1,COHORT1,Cohort 1,USA
D6470C00005,DM,D6470C00005-0023,0023,2021-03-27,2021-04-23,2021-03-27,2021-04-23,0002,1964-02-18,57,YEARS,F,BLACK OR AFRICAN AMERICAN,NOT HISPANIC OR LATINO,COHORT1,Cohort 1,COHORT1,Cohort 1,USA
D6470C00005,DM,D6470C00005-0024,0024,2021-02-11,2021-03-10,2021-02-11,2021-03-10,0002,1968-04-23,53,YEARS,M,WHITE,NOT HISPANIC OR LATINO,COHORT1,Cohort 1,COHORT1,Cohort 1,USA
D6470C00005,DM,D6470C00005-0025,0025,2020-12-14,2021-01-10,2020-12-14,2021-01-10,0001,1949-07-10,71,YEARS,M,ASIAN,NOT HISPANIC OR LATINO,COHORT2,Cohort 2,COHORT2,Cohort 2,USA
D6470C00005,DM,D6470C00005-0026,0026,2021-02-08,2021-03-07,2021-02-08,2021-03-07,0002,1951-09-28,70,YEARS,M,BLACK OR AFRICAN AMERICAN,NOT HISPANIC OR LATINO,COHORT2,Cohort 2,COHORT2,Cohort 2,USA
D6470C00005,DM,D6470C00005-0027,0027,2021-01-15,2021-02-11,2021-01-15,2021-02-11,0003,1959-11-22,62,YEARS,M,AMERICAN INDIAN OR ALASKA NATIVE,NOT HISPANIC OR LATINO,COHORT2,Cohort 2,COHORT2,Cohort 2,USA
D6470C00005,DM,D6470C00005-0028,0028,2021-03-21,2021-04-17,2021-03-21,2021-04-17,0003,1952-08-17,69,YEARS,F,WHITE,NOT HISPANIC OR LATINO,COHORT2,Cohort 2,COHORT2,Cohort 2,USA
D6470C00005,DM,D6470C00005-0029,0029,2021-03-20,2021-04-16,2021-03-20,2021-04-16,0001,1960-02-03,61,YEARS,F,BLACK OR AFRICAN AMERICAN,HISPANIC OR LATINO,COHORT2,Cohort 2,COHORT2,Cohort 2,USA
D6470C00005,DM,D6470C00005-0030,0030,2021-01-17,2021-02-13,2021-01-17,2021-02-13,0003,1963-10-11,58,YEARS,M,BLACK OR AFRICAN AMERICAN,NOT HISPANIC OR LATINO,COHORT2,Cohort 2,COHORT2,Cohort 2,USA
D6470C00005,DM,D6470C00005-0031,0031,2020-12-19,2021-01-15,2020-12-19,2021-01-15,0002,1948-05-23,72,YEARS,F,BLACK OR AFRICAN AMERICAN,NOT HISPANIC OR LATINO,COHORT2,Cohort 2,COHORT2,Cohort 2,USA
D6470C00005,DM,D6470C00005-0032,0032,2020-12-20,2021-01-16,2020-12-20,2021-01-16,0001,1964-01-06,56,YEARS,F,ASIAN,HISPANIC OR LATINO,COHORT2,Cohort 2,COHORT2,Cohort 2,USA
D6470C00005,DM,D6470C00005-0033,0033,2020-12-10,2021-01-06,2020-12-10,2021-01-06,0003,1971-01-02,49,YEARS,F,ASIAN,NOT HISPANIC OR LATINO,COHORT3,Cohort 3,COHORT3,Cohort 3,USA
D6470C00005,DM,D6470C00005-0034,0034,2021-04-05,2021-05-02,2021-04-05,2021-05-02,0002,1965-06-11,56,YEARS,F,ASIAN,NOT HISPANIC OR LATINO,COHORT3,Cohort 3,COHORT3,Cohort 3,USA
D6470C00005,DM,D6470C00005-0035,0035,2021-01-23,2021-02-19,2021-01-23,2021-02-19,0003,1980-12-19,41,YEARS,F,BLACK OR AFRICAN AMERICAN,NOT HISPANIC OR LATINO,COHORT3,Cohort 3,COHORT3,Cohort 3,USA
D6470C00005,DM,D6470C00005-0036,0036,2020-12-29,2021-01-25,2020-12-29,2021-01-25,0003,1972-07-01,48,YEARS,M,ASIAN,NOT HISPANIC OR LATINO,COHORT3,Cohort 3,COHORT3,Cohort 3,USA
D6470C00005,DM,D6470C00005-0037,0037,2020-12-28,2021-01-24,2020-12-28,2021-01-24,0003,1970-12-11,50,YEARS,F,BLACK OR AFRICAN AMERICAN,HISPANIC OR LATINO,COHORT3,Cohort 3,COHORT3,Cohort 3,USA
D6470C00005,DM,D6470C00005-0038,0038,2021-03-27,2021-04-23,2021-03-27,2021-04-23,0003,1946-04-20,75,YEARS,F,AMERICAN INDIAN OR ALASKA NATIVE,NOT HISPANIC OR LATINO,COHORT3,Cohort 3,COHORT3,Cohort 3,USA
D6470C00005,DM,D6470C00005-0039,0039,2020-12-13,2021-01-09,2020-12-13,2021-01-09,0002,1954-07-17,66,YEARS,F,ASIAN,NOT HISPANIC OR LATINO,COHORT3,Cohort 3,COHORT3,Cohort 3,USA
D6470C00005,DM,D6470C00005-0040,0040,2021-01-16,2021-02-12,2021-01-16,2021-02-12,0002,1948-07-13,73,YEARS,F,ASIAN,NOT HISPANIC OR LATINO,COHORT3,Cohort 3,COHORT3,Cohort 3,USA
