STUDYID,DOMAIN,USUBJID,MHSEQ,MHTERM,MHCAT,EPOCH,MHSTDTC,MHSTDY
D6470C00005,MH,D6470C00005-0001,1,Type 2 diabetes mellitus,GENERAL,SCREENING,2015-03-06,-2116
D6470C00005,MH,D6470C00005-0001,2,Hypercholesterolaemia,GENERAL,SCREENING,2019-04-19,-611
D6470C00005,MH,D6470C00005-0002,1,Type 2 diabetes mellitus,GENERAL,SCREENING,2011-06-21,-3486
D6470C00005,MH,D6470C00005-0002,2,Hypercholesterolaemia,GENERAL,SCREENING,2012-01-18,-3275
D6470C00005,MH,D6470C00005-0002,3,Osteoarthritis,GENERAL,SCREENING,2013-02-23,-2873
D6470C00005,MH,D6470C00005-0003,1,Type 2 diabetes mellitus,GENERAL,SCREENING,2018-02-27,-1032
D6470C00005,MH,D6470C00005-0004,1,Type 2 diabetes mellitus,GENERAL,SCREENING,2013-12-16,-2559
D6470C00005,MH,D6470C00005-0004,2,Hypercholesterolaemia,GENERAL,SCREENING,2015-09-11,-1925
D6470C00005,MH,D6470C00005-0005,1,Type 2 diabetes mellitus,GENERAL,SCREENING,2012-09-15,-3088
D6470C00005,MH,D6470C00005-0005,2,Hypertension,GENERAL,SCREENING,2020-09-06,-175
D6470C00005,MH,D6470C00005-0005,3,Obesity,GENERAL,SCREENING,2018-03-13,-1083
D6470C00005,MH,D6470C00005-0006,1,Type 2 diabetes mellitus,GENERAL,SCREENING,2014-03-17,-2572
D6470C00005,MH,D6470C00005-0007,1,Type 2 diabetes mellitus,GENERAL,SCREENING,2016-02-16,-1842
D6470C00005,MH,D6470C00005-0007,2,Obesity,GENERAL,SCREENING,2016-07-28,-1679
D6470C00005,MH,D6470C00005-0007,3,Hypercholesterolaemia,GENERAL,SCREENING,2013-05-28,-2836
D6470C00005,MH,D6470C00005-0008,1,Type 2 diabetes mellitus,GENERAL,SCREENING,2014-03-03,-2488
D6470C00005,MH,D6470C00005-0008,2,Hypercholesterolaemia,GENERAL,SCREENING,2012-04-25,-3165
D6470C00005,MH,D6470C00005-0009,1,Type 2 diabetes mellitus,GENERAL,SCREENING,2019-05-27,-614
D6470C00005,MH,D6470C00005-0010,1,Type 2 diabetes mellitus,GENERAL,SCREENING,2012-05-05,-3239
D6470C00005,MH,D6470C00005-0010,2,Hypercholesterolaemia,GENERAL,SCREENING,2017-09-17,-1278
D6470C00005,MH,D6470C00005-0011,1,Type 2 diabetes mellitus,GENERAL,SCREENING,2018-04-11,-1030
D6470C00005,MH,D6470C00005-0011,2,Gastro-oesophageal reflux disease,GENERAL,SCREENING,2020-09-12,-145
D6470C00005,MH,D6470C00005-0011,3,Osteoarthritis,GENERAL,SCREENING,2017-11-08,-1184
D6470C00005,MH,D6470C00005-0012,1,Type 2 diabetes mellitus,GENERAL,SCREENING,2012-01-01,-3301
D6470C00005,MH,D6470C00005-0012,2,Osteoarthritis,GENERAL,SCREENING,2017-11-25,-1146
D6470C00005,MH,D6470C00005-0013,1,Type 2 diabetes mellitus,GENERAL,SCREENING,2020-07-14,-254
D6470C00005,MH,D6470C00005-0013,2,Osteoarthritis,GENERAL,SCREENING,2015-11-19,-1953
D6470C00005,MH,D6470C00005-0014,1,Type 2 diabetes mellitus,GENERAL,SCREENING,2012-04-25,-3223
D6470C00005,MH,D6470C00005-0014,2,Gastro-oesophageal reflux disease,GENERAL,SCREENING,2016-08-19,-1646
D6470C00005,MH,D6470C00005-0014,3,Osteoarthritis,GENERAL,SCREENING,2020-01-10,-407
D6470C00005,MH,D6470C00005-0015,1,Type 2 diabetes mellitus,GENERAL,SCREENING,2010-02-15,-3960
D6470C00005,MH,D6470C00005-0015,2,Hypercholesterolaemia,GENERAL,SCREENING,2013-04-02,-2818
D6470C00005,MH,D6470C00005-0015,3,Osteoarthritis,GENERAL,SCREENING,2013-07-04,-2725
D6470C00005,MH,D6470C00005-0016,1,Type 2 diabetes mellitus,GENERAL,SCREENING,2014-03-28,-2548
D6470C00005,MH,D6470C00005-0017,1,Type 2 diabetes mellitus,GENERAL,SCREENING,2010-02-26,-3961
D6470C00005,MH,D6470C00005-0017,2,Obesity,GENERAL,SCREENING,2016-02-17,-1779
D6470C00005,MH,D6470C00005-0017,3,Hypercholesterolaemia,GENERAL,SCREENING,2013-01-05,-2917
D6470C00005,MH,D6470C00005-0018,1,Type 2 diabetes mellitus,GENERAL,SCREENING,2016-11-17,-1600
D6470C00005,MH,D6470C00005-0019,1,Type 2 diabetes mellitus,GENERAL,SCREENING,2015-09-02,-1989
D6470C00005,MH,D6470C00005-0019,2,Gastro-oesophageal reflux disease,GENERAL,SCREENING,2020-01-14,-394
D6470C00005,MH,D6470C00005-0020,1,Type 2 diabetes mellitus,GENERAL,SCREENING,2013-01-23,-2985
D6470C00005,MH,D6470C00005-0020,2,Hypercholesterolaemia,GENERAL,SCREENING,2017-10-16,-1258
D6470C00005,MH,D6470C00005-0021,1,Type 2 diabetes mellitus,GENERAL,SCREENING,2011-01-10,-3699
D6470C00005,MH,D6470C00005-0022,1,Type 2 diabetes mellitus,GENERAL,SCREENING,2013-08-06,-2787
D6470C00005,MH,D6470C00005-0022,2,Hypercholesterolaemia,GENERAL,SCREENING,2014-11-24,-2312
D6470C00005,MH,D6470C00005-0023,1,Type 2 diabetes mellitus,GENERAL,SCREENING,2016-09-01,-1668
D6470C00005,MH,D6470C00005-0023,2,Obesity,GENERAL,SCREENING,2017-03-23,-1465
D6470C00005,MH,D6470C00005-0024,1,Type 2 diabetes mellitus,GENERAL,SCREENING,2020-11-10,-93
D6470C00005,MH,D6470C00005-0024,2,Gastro-oesophageal reflux disease,GENERAL,SCREENING,2020-07-06,-220
D6470C00005,MH,D6470C00005-0024,3,Osteoarthritis,GENERAL,SCREENING,2014-11-11,-2284
D6470C00005,MH,D6470C00005-0025,1,Type 2 diabetes mellitus,GENERAL,SCREENING,2010-05-28,-3853
D6470C00005,MH,D6470C00005-0026,1,Type 2 diabetes mellitus,GENERAL,SCREENING,2019-10-24,-473
D6470C00005,MH,D6470C00005-0026,2,Gastro-oesophageal reflux disease,GENERAL,SCREENING,2015-09-23,-1965
D6470C00005,MH,D6470C00005-0027,1,Type 2 diabetes mellitus,GENERAL,SCREENING,2011-01-22,-3646
D6470C00005,MH,D6470C00005-0027,2,Osteoarthritis,GENERAL,SCREENING,2018-07-04,-926
D6470C00005,MH,D6470C00005-0028,1,Type 2 diabetes mellitus,GENERAL,SCREENING,2012-09-11,-3113
D6470C00005,MH,D6470C00005-0028,2,Gastro-oesophageal reflux disease,GENERAL,SCREENING,2019-07-03,-627
D6470C00005,MH,D6470C00005-0028,3,Hypercholesterolaemia,GENERAL,SCREENING,2015-12-17,-1921
D6470C00005,MH,D6470C00005-0029,1,Type 2 diabetes mellitus,GENERAL,SCREENING,2018-11-28,-843
D6470C00005,MH,D6470C00005-0030,1,Type 2 diabetes mellitus,GENERAL,SCREENING,2015-12-27,-1848
D6470C00005,MH,D6470C00005-0030,2,Osteoarthritis,GENERAL,SCREENING,2019-02-20,-697
D6470C00005,MH,D6470C00005-0030,3,Obesity,GENERAL,SCREENING,2013-10-01,-2665
D6470C00005,MH,D6470C00005-0031,1,Type 2 diabetes mellitus,GENERAL,SCREENING,2014-01-19,-2526
D6470C00005,MH,D6470C00005-0031,2,Hypercholesterolaemia,GENERAL,SCREENING,2012-12-18,-2923
D6470C00005,MH,D6470C00005-0031,3,Hypertension,GENERAL,SCREENING,2017-10-02,-1174
D6470C00005,MH,D6470C00005-0032,1,Type 2 diabetes mellitus,GENERAL,SCREENING,2015-09-27,-1911
D6470C00005,MH,D6470C00005-0032,2,Gastro-oesophageal reflux disease,GENERAL,SCREENING,2015-10-20,-1888
D6470C00005,MH,D6470C00005-0032,3,Osteoarthritis,GENERAL,SCREENING,2019-11-19,-397
D6470C00005,MH,D6470C00005-0033,1,Type 2 diabetes mellitus,GENERAL,SCREENING,2014-09-11,-2282
D6470C00005,MH,D6470C00005-0033,2,Hypercholesterolaemia,GENERAL,SCREENING,2016-02-25,-1750
D6470C00005,MH,D6470C00005-0033,3,Hypertension,GENERAL,SCREENING,2015-01-03,-2168
D6470C00005,MH,D6470C00005-0034,1,Type 2 diabetes mellitus,GENERAL,SCREENING,2019-01-27,-799
D6470C00005,MH,D6470C00005-0034,2,Gastro-oesophageal reflux disease,GENERAL,SCREENING,2015-10-22,-1992
D6470C00005,MH,D6470C00005-0035,1,Type 2 diabetes mellitus,GENERAL,SCREENING,2014-10-25,-2282
D6470C00005,MH,D6470C00005-0036,1,Type 2 diabetes mellitus,GENERAL,SCREENING,2013-08-03,-2705
D6470C00005,MH,D6470C00005-0037,1,Type 2 diabetes mellitus,GENERAL,SCREENING,2018-06-21,-921
D6470C00005,MH,D6470C00005-0037,2,Obesity,GENERAL,SCREENING,2013-06-23,-2745
D6470C00005,MH,D6470C00005-0038,1,Type 2 diabetes mellitus,GENERAL,SCREENING,2019-01-05,-812
D6470C00005,MH,D6470C00005-0039,1,Type 2 diabetes mellitus,GENERAL,SCREENING,2012-06-23,-3095
D6470C00005,MH,D6470C00005-0039,2,Hypercholesterolaemia,GENERAL,SCREENING,2019-05-19,-574
D6470C00005,MH,D6470C00005-0039,3,Hypertension,GENERAL,SCREENING,2017-01-20,-1423
D6470C00005,MH,D6470C00005-0040,1,Type 2 diabetes mellitus,GENERAL,SCREENING,2015-09-20,-1945
D6470C00005,MH,D6470C00005-0040,2,Gastro-oesophageal reflux disease,GENERAL,SCREENING,2019-09-26,-478
