STUDYID,DOMAIN,USUBJID,VSSEQ,VSTESTCD,VSTEST,VSPOS,VSORRES,VSORRESU,VSSTRESC,VSSTRESN,VSSTRESU,VISITNUM,VISIT,EPOCH,VSDTC,VSDY
D6470C00005,VS,D6470C00005-0001,1,SYSBP,Systolic Blood Pressure,SUPINE,153,mmHg,153,153,mmHg,1,SCREENING,SCREENING,2020-12-06,-14
D6470C00005,VS,D6470C00005-0001,2,DIABP,Diastolic Blood Pressure,SUPINE,89,mmHg,89,89,mmHg,1,SCREENING,SCREENING,2020-12-06,-14
D6470C00005,VS,D6470C00005-0001,3,PULSE,Pulse Rate,SUPINE,77,beats/min,77,77,beats/min,1,SCREENING,SCREENING,2020-12-06,-14
D6470C00005,VS,D6470C00005-0001,4,TEMP,Temperature,SUPINE,37.2,C,37.2,37.2,C,1,SCREENING,SCREENING,2020-12-06,-14
D6470C00005,VS,D6470C00005-0001,5,HEIGHT,Height,STANDING,176.9,cm,176.9,176.9,cm,1,SCREENING,SCREENING,2020-12-06,-14
D6470C00005,VS,D6470C00005-0001,6,WEIGHT,Weight,STANDING,64.2,kg,64.2,64.2,kg,1,SCREENING,SCREENING,2020-12-06,-14
D6470C00005,VS,D6470C00005-0001,7,SYSBP,Systolic Blood Pressure,SUPINE,131,mmHg,131,131,mmHg,3,DAY 4 (TP1),TREATMENT,2020-12-24,5
D6470C00005,VS,D6470C00005-0001,8,DIABP,Diastolic Blood Pressure,SUPINE,82,mmHg,82,82,mmHg,3,DAY 4 (TP1),TREATMENT,2020-12-24,5
D6470C00005,VS,D6470C00005-0001,9,PULSE,Pulse Rate,SUPINE,66,beats/min,66,66,beats/min,3,DAY 4 (TP1),TREATMENT,2020-12-24,5
D6470C00005,VS,D6470C00005-0001,10,TEMP,Temperature,SUPINE,36.9,C,36.9,36.9,C,3,DAY 4 (TP1),TREATMENT,2020-12-24,5
D6470C00005,VS,D6470C00005-0001,11,SYSBP,Systolic Blood Pressure,SUPINE,144,mmHg,144,144,mmHg,5,DAY 31 (TP2),TREATMENT,2021-01-20,32
D6470C00005,VS,D6470C00005-0001,12,DIABP,Diastolic Blood Pressure,SUPINE,76,mmHg,76,76,mmHg,5,DAY 31 (TP2),TREATMENT,2021-01-20,32
D6470C00005,VS,D6470C00005-0001,13,PULSE,Pulse Rate,SUPINE,81,beats/min,81,81,beats/min,5,DAY 31 (TP2),TREATMENT,2021-01-20,32
D6470C00005,VS,D6470C00005-0001,14,TEMP,Temperature,SUPINE,36.4,C,36.4,36.4,C,5,DAY 31 (TP2),TREATMENT,2021-01-20,32
D6470C00005,VS,D6470C00005-0001,15,SYSBP,Systolic Blood Pressure,SUPINE,132,mmHg,132,132,mmHg,6,FOLLOW-UP,FOLLOW-UP,2021-02-19,62
D6470C00005,VS,D6470C00005-0001,16,DIABP,Diastolic Blood Pressure,SUPINE,93,mmHg,93,93,mmHg,6,FOLLOW-UP,FOLLOW-UP,2021-02-19,62
D6470C00005,VS,D6470C00005-0001,17,PULSE,Pulse Rate,SUPINE,62,beats/min,62,62,beats/min,6,FOLLOW-UP,FOLLOW-UP,2021-02-19,62
D6470C00005,VS,D6470C00005-0001,18,TEMP,Temperature,SUPINE,36.7,C,36.7,36.7,C,6,FOLLOW-UP,FOLLOW-UP,2021-02-19,62
D6470C00005,VS,D6470C00005-0002,1,SYSBP,Systolic Blood Pressure,SUPINE,147,mmHg,147,147,mmHg,1,SCREENING,SCREENING,2020-12-22,-14
D6470C00005,VS,D6470C00005-0002,2,DIABP,Diastolic Blood Pressure,SUPINE,92,mmHg,92,92,mmHg,1,SCREENING,SCREENING,2020-12-22,-14
D6470C00005,VS,D6470C00005-0002,3,PULSE,Pulse Rate,SUPINE,90,beats/min,90,90,beats/min,1,SCREENING,SCREENING,2020-12-22,-14
D6470C00005,VS,D6470C00005-0002,4,TEMP,Temperature,SUPINE,36.7,C,36.7,36.7,C,1,SCREENING,SCREENING,2020-12-22,-14
D6470C00005,VS,D6470C00005-0002,5,HEIGHT,Height,STANDING,175.9,cm,175.9,175.9,cm,1,SCREENING,SCREENING,2020-12-22,-14
D6470C00005,VS,D6470C00005-0002,6,WEIGHT,Weight,STANDING,84.2,kg,84.2,84.2,kg,1,SCREENING,SCREENING,2020-12-22,-14
D6470C00005,VS,D6470C00005-0002,7,SYSBP,Systolic Blood Pressure,SUPINE,141,mmHg,141,141,mmHg,3,DAY 4 (TP1),TREATMENT,2021-01-09,5
D6470C00005,VS,D6470C00005-0002,8,DIABP,Diastolic Blood Pressure,SUPINE,79,mmHg,79,79,mmHg,3,DAY 4 (TP1),TREATMENT,2021-01-09,5
D6470C00005,VS,D6470C00005-0002,9,PULSE,Pulse Rate,SUPINE,70,beats/min,70,70,beats/min,3,DAY 4 (TP1),TREATMENT,2021-01-09,5
D6470C00005,VS,D6470C00005-0002,10,TEMP,Temperature,SUPINE,36.4,C,36.4,36.4,C,3,DAY 4 (TP1),TREATMENT,2021-01-09,5
D6470C00005,VS,D6470C00005-0002,11,SYSBP,Systolic Blood Pressure,SUPINE,113,mmHg,113,113,mmHg,5,DAY 31 (TP2),TREATMENT,2021-02-05,32
D6470C00005,VS,D6470C00005-0002,12,DIABP,Diastolic Blood Pressure,SUPINE,78,mmHg,78,78,mmHg,5,DAY 31 (TP2),TREATMENT,2021-02-05,32
D6470C00005,VS,D6470C00005-0002,13,PULSE,Pulse Rate,SUPINE,73,beats/min,73,73,beats/min,5,DAY 31 (TP2),TREATMENT,2021-02-05,32
D6470C00005,VS,D6470C00005-0002,14,TEMP,Temperature,SUPINE,36.5,C,36.5,36.5,C,5,DAY 31 (TP2),TREATMENT,2021-02-05,32
D6470C00005,VS,D6470C00005-0002,15,SYSBP,Systolic Blood Pressure,SUPINE,115,mmHg,115,115,mmHg,6,FOLLOW-UP,FOLLOW-UP,2021-03-07,62
D6470C00005,VS,D6470C00005-0002,16,DIABP,Diastolic Blood Pressure,SUPINE,71,mmHg,71,71,mmHg,6,FOLLOW-UP,FOLLOW-UP,2021-03-07,62
D6470C00005,VS,D6470C00005-0002,17,PULSE,Pulse Rate,SUPINE,92,beats/min,92,92,beats/min,6,FOLLOW-UP,FOLLOW-UP,2021-03-07,62
D6470C00005,VS,D6470C00005-0002,18,TEMP,Temperature,SUPINE,37.0,C,37.0,37.0,C,6,FOLLOW-UP,FOLLOW-UP,2021-03-07,62
D6470C00005,VS,D6470C00005-0003,1,SYSBP,Systolic Blood Pressure,SUPINE,152,mmHg,152,152,mmHg,1,SCREENING,SCREENING,2020-12-11,-14
D6470C00005,VS,D6470C00005-0003,2,DIABP,Diastolic Blood Pressure,SUPINE,91,mmHg,91,91,mmHg,1,SCREENING,SCREENING,2020-12-11,-14
D6470C00005,VS,D6470C00005-0003,3,PULSE,Pulse Rate,SUPINE,57,beats/min,57,57,beats/min,1,SCREENING,SCREENING,2020-12-11,-14
D6470C00005,VS,D6470C00005-0003,4,TEMP,Temperature,SUPINE,36.5,C,36.5,36.5,C,1,SCREENING,SCREENING,2020-12-11,-14
D6470C00005,VS,D6470C00005-0003,5,HEIGHT,Height,STANDING,183.8,cm,183.8,183.8,cm,1,SCREENING,SCREENING,2020-12-11,-14
D6470C00005,VS,D6470C00005-0003,6,WEIGHT,Weight,STANDING,85.2,kg,85.2,85.2,kg,1,SCREENING,SCREENING,2020-12-11,-14
D6470C00005,VS,D6470C00005-0003,7,SYSBP,Systolic Blood Pressure,SUPINE,128,mmHg,128,128,mmHg,3,DAY 4 (TP1),TREATMENT,2020-12-29,5
D6470C00005,VS,D6470C00005-0003,8,DIABP,Diastolic Blood Pressure,SUPINE,65,mmHg,65,65,mmHg,3,DAY 4 (TP1),TREATMENT,2020-12-29,5
D6470C00005,VS,D6470C00005-0003,9,PULSE,Pulse Rate,SUPINE,76,beats/min,76,76,beats/min,3,DAY 4 (TP1),TREATMENT,2020-12-29,5
D6470C00005,VS,D6470C00005-0003,10,TEMP,Temperature,SUPINE,37.0,C,37.0,37.0,C,3,DAY 4 (TP1),TREATMENT,2020-12-29,5
D6470C00005,VS,D6470C00005-0003,11,SYSBP,Systolic Blood Pressure,SUPINE,154,mmHg,154,154,mmHg,5,DAY 31 (TP2),TREATMENT,2021-01-25,32
D6470C00005,VS,D6470C00005-0003,12,DIABP,Diastolic Blood Pressure,SUPINE,62,mmHg,62,62,mmHg,5,DAY 31 (TP2),TREATMENT,2021-01-25,32
D6470C00005,VS,D6470C00005-0003,13,PULSE,Pulse Rate,SUPINE,86,beats/min,86,86,beats/min,5,DAY 31 (TP2),TREATMENT,2021-01-25,32
D6470C00005,VS,D6470C00005-0003,14,TEMP,Temperature,SUPINE,36.2,C,36.2,36.2,C,5,DAY 31 (TP2),TREATMENT,2021-01-25,32
D6470C00005,VS,D6470C00005-0003,15,SYSBP,Systolic Blood Pressure,SUPINE,144,mmHg,144,144,mmHg,6,FOLLOW-UP,FOLLOW-UP,2021-02-24,62
D6470C00005,VS,D6470C00005-0003,16,DIABP,Diastolic Blood Pressure,SUPINE,81,mmHg,81,81,mmHg,6,FOLLOW-UP,FOLLOW-UP,2021-02-24,62
D6470C00005,VS,D6470C00005-0003,17,PULSE,Pulse Rate,SUPINE,66,beats/min,66,66,beats/min,6,FOLLOW-UP,FOLLOW-UP,2021-02-24,62
D6470C00005,VS,D6470C00005-0003,18,TEMP,Temperature,SUPINE,36.8,C,36.8,36.8,C,6,FOLLOW-UP,FOLLOW-UP,2021-02-24,62
D6470C00005,VS,D6470C00005-0004,1,SYSBP,Systolic Blood Pressure,SUPINE,148,mmHg,148,148,mmHg,1,SCREENING,SCREENING,2020-12-04,-14
D6470C00005,VS,D6470C00005-0004,2,DIABP,Diastolic Blood Pressure,SUPINE,86,mmHg,86,86,mmHg,1,SCREENING,SCREENING,2020-12-04,-14
D6470C00005,VS,D6470C00005-0004,3,PULSE,Pulse Rate,SUPINE,72,beats/min,72,72,beats/min,1,SCREENING,SCREENING,2020-12-04,-14
D6470C00005,VS,D6470C00005-0004,4,TEMP,Temperature,SUPINE,36.6,C,36.6,36.6,C,1,SCREENING,SCREENING,2020-12-04,-14
D6470C00005,VS,D6470C00005-0004,5,HEIGHT,Height,STANDING,170.6,cm,170.6,170.6,cm,1,SCREENING,SCREENING,2020-12-04,-14
D6470C00005,VS,D6470C00005-0004,6,WEIGHT,Weight,STANDING,62.3,kg,62.3,62.3,kg,1,SCREENING,SCREENING,2020-12-04,-14
D6470C00005,VS,D6470C00005-0004,7,SYSBP,Systolic Blood Pressure,SUPINE,140,mmHg,140,140,mmHg,3,DAY 4 (TP1),TREATMENT,2020-12-22,5
D6470C00005,VS,D6470C00005-0004,8,DIABP,Diastolic Blood Pressure,SUPINE,86,mmHg,86,86,mmHg,3,DAY 4 (TP1),TREATMENT,2020-12-22,5
D6470C00005,VS,D6470C00005-0004,9,PULSE,Pulse Rate,SUPINE,80,beats/min,80,80,beats/min,3,DAY 4 (TP1),TREATMENT,2020-12-22,5
D6470C00005,VS,D6470C00005-0004,10,TEMP,Temperature,SUPINE,36.5,C,36.5,36.5,C,3,DAY 4 (TP1),TREATMENT,2020-12-22,5
D6470C00005,VS,D6470C00005-0004,11,SYSBP,Systolic Blood Pressure,SUPINE,133,mmHg,133,133,mmHg,5,DAY 31 (TP2),TREATMENT,2021-01-18,32
D6470C00005,VS,D6470C00005-0004,12,DIABP,Diastolic Blood Pressure,SUPINE,95,mmHg,95,95,mmHg,5,DAY 31 (TP2),TREATMENT,2021-01-18,32
D6470C00005,VS,D6470C00005-0004,13,PULSE,Pulse Rate,SUPINE,57,beats/min,57,57,beats/min,5,DAY 31 (TP2),TREATMENT,2021-01-18,32
D6470C00005,VS,D6470C00005-0004,14,TEMP,Temperature,SUPINE,37.3,C,37.3,37.3,C,5,DAY 31 (TP2),TREATMENT,2021-01-18,32
D6470C00005,VS,D6470C00005-0004,15,SYSBP,Systolic Blood Pressure,SUPINE,145,mmHg,145,145,mmHg,6,FOLLOW-UP,FOLLOW-UP,2021-02-17,62
D6470C00005,VS,D6470C00005-0004,16,DIABP,Diastolic Blood Pressure,SUPINE,83,mmHg,83,83,mmHg,6,FOLLOW-UP,FOLLOW-UP,2021-02-17,62
D6470C00005,VS,D6470C00005-0004,17,PULSE,Pulse Rate,SUPINE,70,beats/min,70,70,beats/min,6,FOLLOW-UP,FOLLOW-UP,2021-02-17,62
D6470C00005,VS,D6470C00005-0004,18,TEMP,Temperature,SUPINE,36.4,C,36.4,36.4,C,6,FOLLOW-UP,FOLLOW-UP,2021-02-17,62
D6470C00005,VS,D6470C00005-0005,1,SYSBP,Systolic Blood Pressure,SUPINE,125,mmHg,125,125,mmHg,1,SCREENING,SCREENING,2021-02-14,-14
D6470C00005,VS,D6470C00005-0005,2,DIABP,Diastolic Blood Pressure,SUPINE,68,mmHg,68,68,mmHg,1,SCREENING,SCREENING,2021-02-14,-14
D6470C00005,VS,D6470C00005-0005,3,PULSE,Pulse Rate,SUPINE,79,beats/min,79,79,beats/min,1,SCREENING,SCREENING,2021-02-14,-14
D6470C00005,VS,D6470C00005-0005,4,TEMP,Temperature,SUPINE,36.9,C,36.9,36.9,C,1,SCREENING,SCREENING,2021-02-14,-14
D6470C00005,VS,D6470C00005-0005,5,HEIGHT,Height,STANDING,160.0,cm,160.0,160.0,cm,1,SCREENING,SCREENING,2021-02-14,-14
D6470C00005,VS,D6470C00005-0005,6,WEIGHT,Weight,STANDING,106.7,kg,106.7,106.7,kg,1,SCREENING,SCREENING,2021-02-14,-14
D6470C00005,VS,D6470C00005-0005,7,SYSBP,Systolic Blood Pressure,SUPINE,128,mmHg,128,128,mmHg,3,DAY 4 (TP1),TREATMENT,2021-03-04,5
D6470C00005,VS,D6470C00005-0005,8,DIABP,Diastolic Blood Pressure,SUPINE,89,mmHg,89,89,mmHg,3,DAY 4 (TP1),TREATMENT,2021-03-04,5
D6470C00005,VS,D6470C00005-0005,9,PULSE,Pulse Rate,SUPINE,72,beats/min,72,72,beats/min,3,DAY 4 (TP1),TREATMENT,2021-03-04,5
D6470C00005,VS,D6470C00005-0005,10,TEMP,Temperature,SUPINE,36.7,C,36.7,36.7,C,3,DAY 4 (TP1),TREATMENT,2021-03-04,5
D6470C00005,VS,D6470C00005-0005,11,SYSBP,Systolic Blood Pressure,SUPINE,131,mmHg,131,131,mmHg,5,DAY 31 (TP2),TREATMENT,2021-03-31,32
D6470C00005,VS,D6470C00005-0005,12,DIABP,Diastolic Blood Pressure,SUPINE,80,mmHg,80,80,mmHg,5,DAY 31 (TP2),TREATMENT,2021-03-31,32
D6470C00005,VS,D6470C00005-0005,13,PULSE,Pulse Rate,SUPINE,70,beats/min,70,70,beats/min,5,DAY 31 (TP2),TREATMENT,2021-03-31,32
D6470C00005,VS,D6470C00005-0005,14,TEMP,Temperature,SUPINE,37.1,C,37.1,37.1,C,5,DAY 31 (TP2),TREATMENT,2021-03-31,32
D6470C00005,VS,D6470C00005-0005,15,SYSBP,Systolic Blood Pressure,SUPINE,143,mmHg,143,143,mmHg,6,FOLLOW-UP,FOLLOW-UP,2021-04-30,62
D6470C00005,VS,D6470C00005-0005,16,DIABP,Diastolic Blood Pressure,SUPINE,72,mmHg,72,72,mmHg,6,FOLLOW-UP,FOLLOW-UP,2021-04-30,62
D6470C00005,VS,D6470C00005-0005,17,PULSE,Pulse Rate,SUPINE,83,beats/min,83,83,beats/min,6,FOLLOW-UP,FOLLOW-UP,2021-04-30,62
D6470C00005,VS,D6470C00005-0005,18,TEMP,Temperature,SUPINE,36.9,C,36.9,36.9,C,6,FOLLOW-UP,FOLLOW-UP,2021-04-30,62
D6470C00005,VS,D6470C00005-0006,1,SYSBP,Systolic Blood Pressure,SUPINE,117,mmHg,117,117,mmHg,1,SCREENING,SCREENING,2021-03-18,-14
D6470C00005,VS,D6470C00005-0006,2,DIABP,Diastolic Blood Pressure,SUPINE,94,mmHg,94,94,mmHg,1,SCREENING,SCREENING,2021-03-18,-14
D6470C00005,VS,D6470C00005-0006,3,PULSE,Pulse Rate,SUPINE,65,beats/min,65,65,beats/min,1,SCREENING,SCREENING,2021-03-18,-14
D6470C00005,VS,D6470C00005-0006,4,TEMP,Temperature,SUPINE,36.3,C,36.3,36.3,C,1,SCREENING,SCREENING,2021-03-18,-14
D6470C00005,VS,D6470C00005-0006,5,HEIGHT,Height,STANDING,150.2,cm,150.2,150.2,cm,1,SCREENING,SCREENING,2021-03-18,-14
D6470C00005,VS,D6470C00005-0006,6,WEIGHT,Weight,STANDING,67.2,kg,67.2,67.2,kg,1,SCREENING,SCREENING,2021-03-18,-14
D6470C00005,VS,D6470C00005-0006,7,SYSBP,Systolic Blood Pressure,SUPINE,141,mmHg,141,141,mmHg,3,DAY 4 (TP1),TREATMENT,2021-04-05,5
D6470C00005,VS,D6470C00005-0006,8,DIABP,Diastolic Blood Pressure,SUPINE,91,mmHg,91,91,mmHg,3,DAY 4 (TP1),TREATMENT,2021-04-05,5
D6470C00005,VS,D6470C00005-0006,9,PULSE,Pulse Rate,SUPINE,91,beats/min,91,91,beats/min,3,DAY 4 (TP1),TREATMENT,2021-04-05,5
D6470C00005,VS,D6470C00005-0006,10,TEMP,Temperature,SUPINE,37.3,C,37.3,37.3,C,3,DAY 4 (TP1),TREATMENT,2021-04-05,5
D6470C00005,VS,D6470C00005-0006,11,SYSBP,Systolic Blood Pressure,SUPINE,158,mmHg,158,158,mmHg,5,DAY 31 (TP2),TREATMENT,2021-05-02,32
D6470C00005,VS,D6470C00005-0006,12,DIABP,Diastolic Blood Pressure,SUPINE,70,mmHg,70,70,mmHg,5,DAY 31 (TP2),TREATMENT,2021-05-02,32
D6470C00005,VS,D6470C00005-0006,13,PULSE,Pulse Rate,SUPINE,69,beats/min,69,69,beats/min,5,DAY 31 (TP2),TREATMENT,2021-05-02,32
D6470C00005,VS,D6470C00005-0006,14,TEMP,Temperature,SUPINE,36.7,C,36.7,36.7,C,5,DAY 31 (TP2),TREATMENT,2021-05-02,32
D6470C00005,VS,D6470C00005-0006,15,SYSBP,Systolic Blood Pressure,SUPINE,128,mmHg,128,128,mmHg,6,FOLLOW-UP,FOLLOW-UP,2021-06-01,62
D6470C00005,VS,D6470C00005-0006,16,DIABP,Diastolic Blood Pressure,SUPINE,88,mmHg,88,88,mmHg,6,FOLLOW-UP,FOLLOW-UP,2021-06-01,62
D6470C00005,VS,D6470C00005-0006,17,PULSE,Pulse Rate,SUPINE,92,beats/min,92,92,beats/min,6,FOLLOW-UP,FOLLOW-UP,2021-06-01,62
D6470C00005,VS,D6470C00005-0006,18,TEMP,Temperature,SUPINE,37.3,C,37.3,37.3,C,6,FOLLOW-UP,FOLLOW-UP,2021-06-01,62
D6470C00005,VS,D6470C00005-0007,1,SYSBP,Systolic Blood Pressure,SUPINE,119,mmHg,119,119,mmHg,1,SCREENING,SCREENING,2021-02-17,-14
D6470C00005,VS,D6470C00005-0007,2,DIABP,Diastolic Blood Pressure,SUPINE,82,mmHg,82,82,mmHg,1,SCREENING,SCREENING,2021-02-17,-14
D6470C00005,VS,D6470C00005-0007,3,PULSE,Pulse Rate,SUPINE,89,beats/min,89,89,beats/min,1,SCREENING,SCREENING,2021-02-17,-14
D6470C00005,VS,D6470C00005-0007,4,TEMP,Temperature,SUPINE,36.7,C,36.7,36.7,C,1,SCREENING,SCREENING,2021-02-17,-14
D6470C00005,VS,D6470C00005-0007,5,HEIGHT,Height,STANDING,173.5,cm,173.5,173.5,cm,1,SCREENING,SCREENING,2021-02-17,-14
D6470C00005,VS,D6470C00005-0007,6,WEIGHT,Weight,STANDING,68.2,kg,68.2,68.2,kg,1,SCREENING,SCREENING,2021-02-17,-14
D6470C00005,VS,D6470C00005-0007,7,SYSBP,Systolic Blood Pressure,SUPINE,125,mmHg,125,125,mmHg,3,DAY 4 (TP1),TREATMENT,2021-03-07,5
D6470C00005,VS,D6470C00005-0007,8,DIABP,Diastolic Blood Pressure,SUPINE,69,mmHg,69,69,mmHg,3,DAY 4 (TP1),TREATMENT,2021-03-07,5
D6470C00005,VS,D6470C00005-0007,9,PULSE,Pulse Rate,SUPINE,64,beats/min,64,64,beats/min,3,DAY 4 (TP1),TREATMENT,2021-03-07,5
D6470C00005,VS,D6470C00005-0007,10,TEMP,Temperature,SUPINE,37.1,C,37.1,37.1,C,3,DAY 4 (TP1),TREATMENT,2021-03-07,5
D6470C00005,VS,D6470C00005-0007,11,SYSBP,Systolic Blood Pressure,SUPINE,140,mmHg,140,140,mmHg,5,DAY 31 (TP2),TREATMENT,2021-04-03,32
D6470C00005,VS,D6470C00005-0007,12,DIABP,Diastolic Blood Pressure,SUPINE,78,mmHg,78,78,mmHg,5,DAY 31 (TP2),TREATMENT,2021-04-03,32
D6470C00005,VS,D6470C00005-0007,13,PULSE,Pulse Rate,SUPINE,65,beats/min,65,65,beats/min,5,DAY 31 (TP2),TREATMENT,2021-04-03,32
D6470C00005,VS,D6470C00005-0007,14,TEMP,Temperature,SUPINE,36.7,C,36.7,36.7,C,5,DAY 31 (TP2),TREATMENT,2021-04-03,32
D6470C00005,VS,D6470C00005-0007,15,SYSBP,Systolic Blood Pressure,SUPINE,121,mmHg,121,121,mmHg,6,FOLLOW-UP,FOLLOW-UP,2021-05-03,62
D6470C00005,VS,D6470C00005-0007,16,DIABP,Diastolic Blood Pressure,SUPINE,79,mmHg,79,79,mmHg,6,FOLLOW-UP,FOLLOW-UP,2021-05-03,62
D6470C00005,VS,D6470C00005-0007,17,PULSE,Pulse Rate,SUPINE,82,beats/min,82,82,beats/min,6,FOLLOW-UP,FOLLOW-UP,2021-05-03,62
D6470C00005,VS,D6470C00005-0007,18,TEMP,Temperature,SUPINE,36.3,C,36.3,36.3,C,6,FOLLOW-UP,FOLLOW-UP,2021-05-03,62
D6470C00005,VS,D6470C00005-0008,1,SYSBP,Systolic Blood Pressure,SUPINE,138,mmHg,138,138,mmHg,1,SCREENING,SCREENING,2020-12-10,-14
D6470C00005,VS,D6470C00005-0008,2,DIABP,Diastolic Blood Pressure,SUPINE,91,mmHg,91,91,mmHg,1,SCREENING,SCREENING,2020-12-10,-14
D6470C00005,VS,D6470C00005-0008,3,PULSE,Pulse Rate,SUPINE,85,beats/min,85,85,beats/min,1,SCREENING,SCREENING,2020-12-10,-14
D6470C00005,VS,D6470C00005-0008,4,TEMP,Temperature,SUPINE,37.3,C,37.3,37.3,C,1,SCREENING,SCREENING,2020-12-10,-14
D6470C00005,VS,D6470C00005-0008,5,HEIGHT,Height,STANDING,155.6,cm,155.6,155.6,cm,1,SCREENING,SCREENING,2020-12-10,-14
D6470C00005,VS,D6470C00005-0008,6,WEIGHT,Weight,STANDING,75.3,kg,75.3,75.3,kg,1,SCREENING,SCREENING,2020-12-10,-14
D6470C00005,VS,D6470C00005-0008,7,SYSBP,Systolic Blood Pressure,SUPINE,149,mmHg,149,149,mmHg,3,DAY 4 (TP1),TREATMENT,2020-12-28,5
D6470C00005,VS,D6470C00005-0008,8,DIABP,Diastolic Blood Pressure,SUPINE,65,mmHg,65,65,mmHg,3,DAY 4 (TP1),TREATMENT,2020-12-28,5
D6470C00005,VS,D6470C00005-0008,9,PULSE,Pulse Rate,SUPINE,57,beats/min,57,57,beats/min,3,DAY 4 (TP1),TREATMENT,2020-12-28,5
D6470C00005,VS,D6470C00005-0008,10,TEMP,Temperature,SUPINE,37.0,C,37.0,37.0,C,3,DAY 4 (TP1),TREATMENT,2020-12-28,5
D6470C00005,VS,D6470C00005-0008,11,SYSBP,Systolic Blood Pressure,SUPINE,153,mmHg,153,153,mmHg,5,DAY 31 (TP2),TREATMENT,2021-01-24,32
D6470C00005,VS,D6470C00005-0008,12,DIABP,Diastolic Blood Pressure,SUPINE,75,mmHg,75,75,mmHg,5,DAY 31 (TP2),TREATMENT,2021-01-24,32
D6470C00005,VS,D6470C00005-0008,13,PULSE,Pulse Rate,SUPINE,78,beats/min,78,78,beats/min,5,DAY 31 (TP2),TREATMENT,2021-01-24,32
D6470C00005,VS,D6470C00005-0008,14,TEMP,Temperature,SUPINE,36.4,C,36.4,36.4,C,5,DAY 31 (TP2),TREATMENT,2021-01-24,32
D6470C00005,VS,D6470C00005-0008,15,SYSBP,Systolic Blood Pressure,SUPINE,144,mmHg,144,144,mmHg,6,FOLLOW-UP,FOLLOW-UP,2021-02-23,62
D6470C00005,VS,D6470C00005-0008,16,DIABP,Diastolic Blood Pressure,SUPINE,66,mmHg,66,66,mmHg,6,FOLLOW-UP,FOLLOW-UP,2021-02-23,62
D6470C00005,VS,D6470C00005-0008,17,PULSE,Pulse Rate,SUPINE,66,beats/min,66,66,beats/min,6,FOLLOW-UP,FOLLOW-UP,2021-02-23,62
D6470C00005,VS,D6470C00005-0008,18,TEMP,Temperature,SUPINE,36.4,C,36.4,36.4,C,6,FOLLOW-UP,FOLLOW-UP,2021-02-23,62
D6470C00005,VS,D6470C00005-0009,1,SYSBP,Systolic Blood Pressure,SUPINE,123,mmHg,123,123,mmHg,1,SCREENING,SCREENING,2021-01-16,-14
D6470C00005,VS,D6470C00005-0009,2,DIABP,Diastolic Blood Pressure,SUPINE,85,mmHg,85,85,mmHg,1,SCREENING,SCREENING,2021-01-16,-14
D6470C00005,VS,D6470C00005-0009,3,PULSE,Pulse Rate,SUPINE,72,beats/min,72,72,beats/min,1,SCREENING,SCREENING,2021-01-16,-14
D6470C00005,VS,D6470C00005-0009,4,TEMP,Temperature,SUPINE,36.4,C,36.4,36.4,C,1,SCREENING,SCREENING,2021-01-16,-14
D6470C00005,VS,D6470C00005-0009,5,HEIGHT,Height,STANDING,156.2,cm,156.2,156.2,cm,1,SCREENING,SCREENING,2021-01-16,-14
D6470C00005,VS,D6470C00005-0009,6,WEIGHT,Weight,STANDING,107.7,kg,107.7,107.7,kg,1,SCREENING,SCREENING,2021-01-16,-14
D6470C00005,VS,D6470C00005-0009,7,SYSBP,Systolic Blood Pressure,SUPINE,139,mmHg,139,139,mmHg,3,DAY 4 (TP1),TREATMENT,2021-02-03,5
D6470C00005,VS,D6470C00005-0009,8,DIABP,Diastolic Blood Pressure,SUPINE,89,mmHg,89,89,mmHg,3,DAY 4 (TP1),TREATMENT,2021-02-03,5
D6470C00005,VS,D6470C00005-0009,9,PULSE,Pulse Rate,SUPINE,84,beats/min,84,84,beats/min,3,DAY 4 (TP1),TREATMENT,2021-02-03,5
D6470C00005,VS,D6470C00005-0009,10,TEMP,Temperature,SUPINE,36.3,C,36.3,36.3,C,3,DAY 4 (TP1),TREATMENT,2021-02-03,5
D6470C00005,VS,D6470C00005-0009,11,SYSBP,Systolic Blood Pressure,SUPINE,120,mmHg,120,120,mmHg,5,DAY 31 (TP2),TREATMENT,2021-03-02,32
D6470C00005,VS,D6470C00005-0009,12,DIABP,Diastolic Blood Pressure,SUPINE,92,mmHg,92,92,mmHg,5,DAY 31 (TP2),TREATMENT,2021-03-02,32
D6470C00005,VS,D6470C00005-0009,13,PULSE,Pulse Rate,SUPINE,79,beats/min,79,79,beats/min,5,DAY 31 (TP2),TREATMENT,2021-03-02,32
D6470C00005,VS,D6470C00005-0009,14,TEMP,Temperature,SUPINE,36.3,C,36.3,36.3,C,5,DAY 31 (TP2),TREATMENT,2021-03-02,32
D6470C00005,VS,D6470C00005-0009,15,SYSBP,Systolic Blood Pressure,SUPINE,115,mmHg,115,115,mmHg,6,FOLLOW-UP,FOLLOW-UP,2021-04-01,62
D6470C00005,VS,D6470C00005-0009,16,DIABP,Diastolic Blood Pressure,SUPINE,65,mmHg,65,65,mmHg,6,FOLLOW-UP,FOLLOW-UP,2021-04-01,62
D6470C00005,VS,D6470C00005-0009,17,PULSE,Pulse Rate,SUPINE,61,beats/min,61,61,beats/min,6,FOLLOW-UP,FOLLOW-UP,2021-04-01,62
D6470C00005,VS,D6470C00005-0009,18,TEMP,Temperature,SUPINE,36.3,C,36.3,36.3,C,6,FOLLOW-UP,FOLLOW-UP,2021-04-01,62
D6470C00005,VS,D6470C00005-0010,1,SYSBP,Systolic Blood Pressure,SUPINE,113,mmHg,113,113,mmHg,1,SCREENING,SCREENING,2021-03-04,-14
D6470C00005,VS,D6470C00005-0010,2,DIABP,Diastolic Blood Pressure,SUPINE,69,mmHg,69,69,mmHg,1,SCREENING,SCREENING,2021-03-04,-14
D6470C00005,VS,D6470C00005-0010,3,PULSE,Pulse Rate,SUPINE,84,beats/min,84,84,beats/min,1,SCREENING,SCREENING,2021-03-04,-14
D6470C00005,VS,D6470C00005-0010,4,TEMP,Temperature,SUPINE,36.6,C,36.6,36.6,C,1,SCREENING,SCREENING,2021-03-04,-14
D6470C00005,VS,D6470C00005-0010,5,HEIGHT,Height,STANDING,180.6,cm,180.6,180.6,cm,1,SCREENING,SCREENING,2021-03-04,-14
D6470C00005,VS,D6470C00005-0010,6,WEIGHT,Weight,STANDING,84.8,kg,84.8,84.8,kg,1,SCREENING,SCREENING,2021-03-04,-14
D6470C00005,VS,D6470C00005-0010,7,SYSBP,Systolic Blood Pressure,SUPINE,111,mmHg,111,111,mmHg,3,DAY 4 (TP1),TREATMENT,2021-03-22,5
D6470C00005,VS,D6470C00005-0010,8,DIABP,Diastolic Blood Pressure,SUPINE,63,mmHg,63,63,mmHg,3,DAY 4 (TP1),TREATMENT,2021-03-22,5
D6470C00005,VS,D6470C00005-0010,9,PULSE,Pulse Rate,SUPINE,59,beats/min,59,59,beats/min,3,DAY 4 (TP1),TREATMENT,2021-03-22,5
D6470C00005,VS,D6470C00005-0010,10,TEMP,Temperature,SUPINE,37.1,C,37.1,37.1,C,3,DAY 4 (TP1),TREATMENT,2021-03-22,5
D6470C00005,VS,D6470C00005-0010,11,SYSBP,Systolic Blood Pressure,SUPINE,118,mmHg,118,118,mmHg,5,DAY 31 (TP2),TREATMENT,2021-04-18,32
D6470C00005,VS,D6470C00005-0010,12,DIABP,Diastolic Blood Pressure,SUPINE,70,mmHg,70,70,mmHg,5,DAY 31 (TP2),TREATMENT,2021-04-18,32
D6470C00005,VS,D6470C00005-0010,13,PULSE,Pulse Rate,SUPINE,74,beats/min,74,74,beats/min,5,DAY 31 (TP2),TREATMENT,2021-04-18,32
D6470C00005,VS,D6470C00005-0010,14,TEMP,Temperature,SUPINE,36.7,C,36.7,36.7,C,5,DAY 31 (TP2),TREATMENT,2021-04-18,32
D6470C00005,VS,D6470C00005-0010,15,SYSBP,Systolic Blood Pressure,SUPINE,144,mmHg,144,144,mmHg,6,FOLLOW-UP,FOLLOW-UP,2021-05-18,62
D6470C00005,VS,D6470C00005-0010,16,DIABP,Diastolic Blood Pressure,SUPINE,89,mmHg,89,89,mmHg,6,FOLLOW-UP,FOLLOW-UP,2021-05-18,62
D6470C00005,VS,D6470C00005-0010,17,PULSE,Pulse Rate,SUPINE,72,beats/min,72,72,beats/min,6,FOLLOW-UP,FOLLOW-UP,2021-05-18,62
D6470C00005,VS,D6470C00005-0010,18,TEMP,Temperature,SUPINE,37.0,C,37.0,37.0,C,6,FOLLOW-UP,FOLLOW-UP,2021-05-18,62
D6470C00005,VS,D6470C00005-0011,1,SYSBP,Systolic Blood Pressure,SUPINE,133,mmHg,133,133,mmHg,1,SCREENING,SCREENING,2021-01-21,-14
D6470C00005,VS,D6470C00005-0011,2,DIABP,Diastolic Blood Pressure,SUPINE,76,mmHg,76,76,mmHg,1,SCREENING,SCREENING,2021-01-21,-14
D6470C00005,VS,D6470C00005-0011,3,PULSE,Pulse Rate,SUPINE,58,beats/min,58,58,beats/min,1,SCREENING,SCREENING,2021-01-21,-14
D6470C00005,VS,D6470C00005-0011,4,TEMP,Temperature,SUPINE,36.6,C,36.6,36.6,C,1,SCREENING,SCREENING,2021-01-21,-14
D6470C00005,VS,D6470C00005-0011,5,HEIGHT,Height,STANDING,167.6,cm,167.6,167.6,cm,1,SCREENING,SCREENING,2021-01-21,-14
D6470C00005,VS,D6470C00005-0011,6,WEIGHT,Weight,STANDING,99.1,kg,99.1,99.1,kg,1,SCREENING,SCREENING,2021-01-21,-14
D6470C00005,VS,D6470C00005-0011,7,SYSBP,Systolic Blood Pressure,SUPINE,118,mmHg,118,118,mmHg,3,DAY 4 (TP1),TREATMENT,2021-02-08,5
D6470C00005,VS,D6470C00005-0011,8,DIABP,Diastolic Blood Pressure,SUPINE,81,mmHg,81,81,mmHg,3,DAY 4 (TP1),TREATMENT,2021-02-08,5
D6470C00005,VS,D6470C00005-0011,9,PULSE,Pulse Rate,SUPINE,79,beats/min,79,79,beats/min,3,DAY 4 (TP1),TREATMENT,2021-02-08,5
D6470C00005,VS,D6470C00005-0011,10,TEMP,Temperature,SUPINE,36.8,C,36.8,36.8,C,3,DAY 4 (TP1),TREATMENT,2021-02-08,5
D6470C00005,VS,D6470C00005-0011,11,SYSBP,Systolic Blood Pressure,SUPINE,147,mmHg,147,147,mmHg,5,DAY 31 (TP2),TREATMENT,2021-03-07,32
D6470C00005,VS,D6470C00005-0011,12,DIABP,Diastolic Blood Pressure,SUPINE,95,mmHg,95,95,mmHg,5,DAY 31 (TP2),TREATMENT,2021-03-07,32
D6470C00005,VS,D6470C00005-0011,13,PULSE,Pulse Rate,SUPINE,85,beats/min,85,85,beats/min,5,DAY 31 (TP2),TREATMENT,2021-03-07,32
D6470C00005,VS,D6470C00005-0011,14,TEMP,Temperature,SUPINE,37.1,C,37.1,37.1,C,5,DAY 31 (TP2),TREATMENT,2021-03-07,32
D6470C00005,VS,D6470C00005-0011,15,SYSBP,Systolic Blood Pressure,SUPINE,121,mmHg,121,121,mmHg,6,FOLLOW-UP,FOLLOW-UP,2021-04-06,62
D6470C00005,VS,D6470C00005-0011,16,DIABP,Diastolic Blood Pressure,SUPINE,72,mmHg,72,72,mmHg,6,FOLLOW-UP,FOLLOW-UP,2021-04-06,62
D6470C00005,VS,D6470C00005-0011,17,PULSE,Pulse Rate,SUPINE,65,beats/min,65,65,beats/min,6,FOLLOW-UP,FOLLOW-UP,2021-04-06,62
D6470C00005,VS,D6470C00005-0011,18,TEMP,Temperature,SUPINE,36.6,C,36.6,36.6,C,6,FOLLOW-UP,FOLLOW-UP,2021-04-06,62
D6470C00005,VS,D6470C00005-0012,1,SYSBP,Systolic Blood Pressure,SUPINE,106,mmHg,106,106,mmHg,1,SCREENING,SCREENING,2020-12-31,-14
D6470C00005,VS,D6470C00005-0012,2,DIABP,Diastolic Blood Pressure,SUPINE,64,mmHg,64,64,mmHg,1,SCREENING,SCREENING,2020-12-31,-14
D6470C00005,VS,D6470C00005-0012,3,PULSE,Pulse Rate,SUPINE,75,beats/min,75,75,beats/min,1,SCREENING,SCREENING,2020-12-31,-14
D6470C00005,VS,D6470C00005-0012,4,TEMP,Temperature,SUPINE,37.1,C,37.1,37.1,C,1,SCREENING,SCREENING,2020-12-31,-14
D6470C00005,VS,D6470C00005-0012,5,HEIGHT,Height,STANDING,167.4,cm,167.4,167.4,cm,1,SCREENING,SCREENING,2020-12-31,-14
D6470C00005,VS,D6470C00005-0012,6,WEIGHT,Weight,STANDING,66.0,kg,66.0,66.0,kg,1,SCREENING,SCREENING,2020-12-31,-14
D6470C00005,VS,D6470C00005-0012,7,SYSBP,Systolic Blood Pressure,SUPINE,126,mmHg,126,126,mmHg,3,DAY 4 (TP1),TREATMENT,2021-01-18,5
D6470C00005,VS,D6470C00005-0012,8,DIABP,Diastolic Blood Pressure,SUPINE,85,mmHg,85,85,mmHg,3,DAY 4 (TP1),TREATMENT,2021-01-18,5
D6470C00005,VS,D6470C00005-0012,9,PULSE,Pulse Rate,SUPINE,83,beats/min,83,83,beats/min,3,DAY 4 (TP1),TREATMENT,2021-01-18,5
D6470C00005,VS,D6470C00005-0012,10,TEMP,Temperature,SUPINE,37.1,C,37.1,37.1,C,3,DAY 4 (TP1),TREATMENT,2021-01-18,5
D6470C00005,VS,D6470C00005-0012,11,SYSBP,Systolic Blood Pressure,SUPINE,132,mmHg,132,132,mmHg,5,DAY 31 (TP2),TREATMENT,2021-02-14,32
D6470C00005,VS,D6470C00005-0012,12,DIABP,Diastolic Blood Pressure,SUPINE,67,mmHg,67,67,mmHg,5,DAY 31 (TP2),TREATMENT,2021-02-14,32
D6470C00005,VS,D6470C00005-0012,13,PULSE,Pulse Rate,SUPINE,72,beats/min,72,72,beats/min,5,DAY 31 (TP2),TREATMENT,2021-02-14,32
D6470C00005,VS,D6470C00005-0012,14,TEMP,Temperature,SUPINE,37.0,C,37.0,37.0,C,5,DAY 31 (TP2),TREATMENT,2021-02-14,32
D6470C00005,VS,D6470C00005-0012,15,SYSBP,Systolic Blood Pressure,SUPINE,138,mmHg,138,138,mmHg,6,FOLLOW-UP,FOLLOW-UP,2021-03-16,62
D6470C00005,VS,D6470C00005-0012,16,DIABP,Diastolic Blood Pressure,SUPINE,68,mmHg,68,68,mmHg,6,FOLLOW-UP,FOLLOW-UP,2021-03-16,62
D6470C00005,VS,D6470C00005-0012,17,PULSE,Pulse Rate,SUPINE,74,beats/min,74,74,beats/min,6,FOLLOW-UP,FOLLOW-UP,2021-03-16,62
D6470C00005,VS,D6470C00005-0012,18,TEMP,Temperature,SUPINE,36.4,C,36.4,36.4,C,6,FOLLOW-UP,FOLLOW-UP,2021-03-16,62
D6470C00005,VS,D6470C00005-0013,1,SYSBP,Systolic Blood Pressure,SUPINE,130,mmHg,130,130,mmHg,1,SCREENING,SCREENING,2021-03-11,-14
D6470C00005,VS,D6470C00005-0013,2,DIABP,Diastolic Blood Pressure,SUPINE,79,mmHg,79,79,mmHg,1,SCREENING,SCREENING,2021-03-11,-14
D6470C00005,VS,D6470C00005-0013,3,PULSE,Pulse Rate,SUPINE,84,beats/min,84,84,beats/min,1,SCREENING,SCREENING,2021-03-11,-14
D6470C00005,VS,D6470C00005-0013,4,TEMP,Temperature,SUPINE,37.4,C,37.4,37.4,C,1,SCREENING,SCREENING,2021-03-11,-14
D6470C00005,VS,D6470C00005-0013,5,HEIGHT,Height,STANDING,175.6,cm,175.6,175.6,cm,1,SCREENING,SCREENING,2021-03-11,-14
D6470C00005,VS,D6470C00005-0013,6,WEIGHT,Weight,STANDING,77.3,kg,77.3,77.3,kg,1,SCREENING,SCREENING,2021-03-11,-14
D6470C00005,VS,D6470C00005-0013,7,SYSBP,Systolic Blood Pressure,SUPINE,129,mmHg,129,129,mmHg,3,DAY 4 (TP1),TREATMENT,2021-03-29,5
D6470C00005,VS,D6470C00005-0013,8,DIABP,Diastolic Blood Pressure,SUPINE,62,mmHg,62,62,mmHg,3,DAY 4 (TP1),TREATMENT,2021-03-29,5
D6470C00005,VS,D6470C00005-0013,9,PULSE,Pulse Rate,SUPINE,80,beats/min,80,80,beats/min,3,DAY 4 (TP1),TREATMENT,2021-03-29,5
D6470C00005,VS,D6470C00005-0013,10,TEMP,Temperature,SUPINE,37.2,C,37.2,37.2,C,3,DAY 4 (TP1),TREATMENT,2021-03-29,5
D6470C00005,VS,D6470C00005-0013,11,SYSBP,Systolic Blood Pressure,SUPINE,145,mmHg,145,145,mmHg,5,DAY 31 (TP2),TREATMENT,2021-04-25,32
D6470C00005,VS,D6470C00005-0013,12,DIABP,Diastolic Blood Pressure,SUPINE,76,mmHg,76,76,mmHg,5,DAY 31 (TP2),TREATMENT,2021-04-25,32
D6470C00005,VS,D6470C00005-0013,13,PULSE,Pulse Rate,SUPINE,87,beats/min,87,87,beats/min,5,DAY 31 (TP2),TREATMENT,2021-04-25,32
D6470C00005,VS,D6470C00005-0013,14,TEMP,Temperature,SUPINE,36.9,C,36.9,36.9,C,5,DAY 31 (TP2),TREATMENT,2021-04-25,32
D6470C00005,VS,D6470C00005-0013,15,SYSBP,Systolic Blood Pressure,SUPINE,155,mmHg,155,155,mmHg,6,FOLLOW-UP,FOLLOW-UP,2021-05-25,62
D6470C00005,VS,D6470C00005-0013,16,DIABP,Diastolic Blood Pressure,SUPINE,66,mmHg,66,66,mmHg,6,FOLLOW-UP,FOLLOW-UP,2021-05-25,62
D6470C00005,VS,D6470C00005-0013,17,PULSE,Pulse Rate,SUPINE,91,beats/min,91,91,beats/min,6,FOLLOW-UP,FOLLOW-UP,2021-05-25,62
D6470C00005,VS,D6470C00005-0013,18,TEMP,Temperature,SUPINE,36.3,C,36.3,36.3,C,6,FOLLOW-UP,FOLLOW-UP,2021-05-25,62
D6470C00005,VS,D6470C00005-0014,1,SYSBP,Systolic Blood Pressure,SUPINE,128,mmHg,128,128,mmHg,1,SCREENING,SCREENING,2021-02-06,-14
D6470C00005,VS,D6470C00005-0014,2,DIABP,Diastolic Blood Pressure,SUPINE,85,mmHg,85,85,mmHg,1,SCREENING,SCREENING,2021-02-06,-14
D6470C00005,VS,D6470C00005-0014,3,PULSE,Pulse Rate,SUPINE,85,beats/min,85,85,beats/min,1,SCREENING,SCREENING,2021-02-06,-14
D6470C00005,VS,D6470C00005-0014,4,TEMP,Temperature,SUPINE,36.2,C,36.2,36.2,C,1,SCREENING,SCREENING,2021-02-06,-14
D6470C00005,VS,D6470C00005-0014,5,HEIGHT,Height,STANDING,181.7,cm,181.7,181.7,cm,1,SCREENING,SCREENING,2021-02-06,-14
D6470C00005,VS,D6470C00005-0014,6,WEIGHT,Weight,STANDING,82.3,kg,82.3,82.3,kg,1,SCREENING,SCREENING,2021-02-06,-14
D6470C00005,VS,D6470C00005-0014,7,SYSBP,Systolic Blood Pressure,SUPINE,108,mmHg,108,108,mmHg,3,DAY 4 (TP1),TREATMENT,2021-02-24,5
D6470C00005,VS,D6470C00005-0014,8,DIABP,Diastolic Blood Pressure,SUPINE,62,mmHg,62,62,mmHg,3,DAY 4 (TP1),TREATMENT,2021-02-24,5
D6470C00005,VS,D6470C00005-0014,9,PULSE,Pulse Rate,SUPINE,55,beats/min,55,55,beats/min,3,DAY 4 (TP1),TREATMENT,2021-02-24,5
D6470C00005,VS,D6470C00005-0014,10,TEMP,Temperature,SUPINE,36.9,C,36.9,36.9,C,3,DAY 4 (TP1),TREATMENT,2021-02-24,5
D6470C00005,VS,D6470C00005-0014,11,SYSBP,Systolic Blood Pressure,SUPINE,148,mmHg,148,148,mmHg,5,DAY 31 (TP2),TREATMENT,2021-03-23,32
D6470C00005,VS,D6470C00005-0014,12,DIABP,Diastolic Blood Pressure,SUPINE,76,mmHg,76,76,mmHg,5,DAY 31 (TP2),TREATMENT,2021-03-23,32
D6470C00005,VS,D6470C00005-0014,13,PULSE,Pulse Rate,SUPINE,91,beats/min,91,91,beats/min,5,DAY 31 (TP2),TREATMENT,2021-03-23,32
D6470C00005,VS,D6470C00005-0014,14,TEMP,Temperature,SUPINE,37.2,C,37.2,37.2,C,5,DAY 31 (TP2),TREATMENT,2021-03-23,32
D6470C00005,VS,D6470C00005-0014,15,SYSBP,Systolic Blood Pressure,SUPINE,112,mmHg,112,112,mmHg,6,FOLLOW-UP,FOLLOW-UP,2021-04-22,62
D6470C00005,VS,D6470C00005-0014,16,DIABP,Diastolic Blood Pressure,SUPINE,86,mmHg,86,86,mmHg,6,FOLLOW-UP,FOLLOW-UP,2021-04-22,62
D6470C00005,VS,D6470C00005-0014,17,PULSE,Pulse Rate,SUPINE,71,beats/min,71,71,beats/min,6,FOLLOW-UP,FOLLOW-UP,2021-04-22,62
D6470C00005,VS,D6470C00005-0014,18,TEMP,Temperature,SUPINE,36.8,C,36.8,36.8,C,6,FOLLOW-UP,FOLLOW-UP,2021-04-22,62
D6470C00005,VS,D6470C00005-0015,1,SYSBP,Systolic Blood Pressure,SUPINE,153,mmHg,153,153,mmHg,1,SCREENING,SCREENING,2020-12-05,-14
D6470C00005,VS,D6470C00005-0015,2,DIABP,Diastolic Blood Pressure,SUPINE,76,mmHg,76,76,mmHg,1,SCREENING,SCREENING,2020-12-05,-14
D6470C00005,VS,D6470C00005-0015,3,PULSE,Pulse Rate,SUPINE,70,beats/min,70,70,beats/min,1,SCREENING,SCREENING,2020-12-05,-14
D6470C00005,VS,D6470C00005-0015,4,TEMP,Temperature,SUPINE,37.4,C,37.4,37.4,C,1,SCREENING,SCREENING,2020-12-05,-14
D6470C00005,VS,D6470C00005-0015,5,HEIGHT,Height,STANDING,182.1,cm,182.1,182.1,cm,1,SCREENING,SCREENING,2020-12-05,-14
D6470C00005,VS,D6470C00005-0015,6,WEIGHT,Weight,STANDING,71.0,kg,71.0,71.0,kg,1,SCREENING,SCREENING,2020-12-05,-14
D6470C00005,VS,D6470C00005-0015,7,SYSBP,Systolic Blood Pressure,SUPINE,147,mmHg,147,147,mmHg,3,DAY 4 (TP1),TREATMENT,2020-12-23,5
D6470C00005,VS,D6470C00005-0015,8,DIABP,Diastolic Blood Pressure,SUPINE,66,mmHg,66,66,mmHg,3,DAY 4 (TP1),TREATMENT,2020-12-23,5
D6470C00005,VS,D6470C00005-0015,9,PULSE,Pulse Rate,SUPINE,58,beats/min,58,58,beats/min,3,DAY 4 (TP1),TREATMENT,2020-12-23,5
D6470C00005,VS,D6470C00005-0015,10,TEMP,Temperature,SUPINE,37.1,C,37.1,37.1,C,3,DAY 4 (TP1),TREATMENT,2020-12-23,5
D6470C00005,VS,D6470C00005-0015,11,SYSBP,Systolic Blood Pressure,SUPINE,123,mmHg,123,123,mmHg,5,DAY 31 (TP2),TREATMENT,2021-01-19,32
D6470C00005,VS,D6470C00005-0015,12,DIABP,Diastolic Blood Pressure,SUPINE,83,mmHg,83,83,mmHg,5,DAY 31 (TP2),TREATMENT,2021-01-19,32
D6470C00005,VS,D6470C00005-0015,13,PULSE,Pulse Rate,SUPINE,75,beats/min,75,75,beats/min,5,DAY 31 (TP2),TREATMENT,2021-01-19,32
D6470C00005,VS,D6470C00005-0015,14,TEMP,Temperature,SUPINE,36.7,C,36.7,36.7,C,5,DAY 31 (TP2),TREATMENT,2021-01-19,32
D6470C00005,VS,D6470C00005-0015,15,SYSBP,Systolic Blood Pressure,SUPINE,145,mmHg,145,145,mmHg,6,FOLLOW-UP,FOLLOW-UP,2021-02-18,62
D6470C00005,VS,D6470C00005-0015,16,DIABP,Diastolic Blood Pressure,SUPINE,64,mmHg,64,64,mmHg,6,FOLLOW-UP,FOLLOW-UP,2021-02-18,62
D6470C00005,VS,D6470C00005-0015,17,PULSE,Pulse Rate,SUPINE,83,beats/min,83,83,beats/min,6,FOLLOW-UP,FOLLOW-UP,2021-02-18,62
D6470C00005,VS,D6470C00005-0015,18,TEMP,Temperature,SUPINE,36.7,C,36.7,36.7,C,6,FOLLOW-UP,FOLLOW-UP,2021-02-18,62
D6470C00005,VS,D6470C00005-0016,1,SYSBP,Systolic Blood Pressure,SUPINE,125,mmHg,125,125,mmHg,1,SCREENING,SCREENING,2021-03-05,-14
D6470C00005,VS,D6470C00005-0016,2,DIABP,Diastolic Blood Pressure,SUPINE,75,mmHg,75,75,mmHg,1,SCREENING,SCREENING,2021-03-05,-14
D6470C00005,VS,D6470C00005-0016,3,PULSE,Pulse Rate,SUPINE,67,beats/min,67,67,beats/min,1,SCREENING,SCREENING,2021-03-05,-14
D6470C00005,VS,D6470C00005-0016,4,TEMP,Temperature,SUPINE,37.1,C,37.1,37.1,C,1,SCREENING,SCREENING,2021-03-05,-14
D6470C00005,VS,D6470C00005-0016,5,HEIGHT,Height,STANDING,173.4,cm,173.4,173.4,cm,1,SCREENING,SCREENING,2021-03-05,-14
D6470C00005,VS,D6470C00005-0016,6,WEIGHT,Weight,STANDING,102.8,kg,102.8,102.8,kg,1,SCREENING,SCREENING,2021-03-05,-14
D6470C00005,VS,D6470C00005-0016,7,SYSBP,Systolic Blood Pressure,SUPINE,155,mmHg,155,155,mmHg,3,DAY 4 (TP1),TREATMENT,2021-03-23,5
D6470C00005,VS,D6470C00005-0016,8,DIABP,Diastolic Blood Pressure,SUPINE,79,mmHg,79,79,mmHg,3,DAY 4 (TP1),TREATMENT,2021-03-23,5
D6470C00005,VS,D6470C00005-0016,9,PULSE,Pulse Rate,SUPINE,54,beats/min,54,54,beats/min,3,DAY 4 (TP1),TREATMENT,2021-03-23,5
D6470C00005,VS,D6470C00005-0016,10,TEMP,Temperature,SUPINE,37.0,C,37.0,37.0,C,3,DAY 4 (TP1),TREATMENT,2021-03-23,5
D6470C00005,VS,D6470C00005-0016,11,SYSBP,Systolic Blood Pressure,SUPINE,131,mmHg,131,131,mmHg,5,DAY 31 (TP2),TREATMENT,2021-04-19,32
D6470C00005,VS,D6470C00005-0016,12,DIABP,Diastolic Blood Pressure,SUPINE,95,mmHg,95,95,mmHg,5,DAY 31 (TP2),TREATMENT,2021-04-19,32
D6470C00005,VS,D6470C00005-0016,13,PULSE,Pulse Rate,SUPINE,55,beats/min,55,55,beats/min,5,DAY 31 (TP2),TREATMENT,2021-04-19,32
D6470C00005,VS,D6470C00005-0016,14,TEMP,Temperature,SUPINE,36.8,C,36.8,36.8,C,5,DAY 31 (TP2),TREATMENT,2021-04-19,32
D6470C00005,VS,D6470C00005-0016,15,SYSBP,Systolic Blood Pressure,SUPINE,122,mmHg,122,122,mmHg,6,FOLLOW-UP,FOLLOW-UP,2021-05-19,62
D6470C00005,VS,D6470C00005-0016,16,DIABP,Diastolic Blood Pressure,SUPINE,89,mmHg,89,89,mmHg,6,FOLLOW-UP,FOLLOW-UP,2021-05-19,62
D6470C00005,VS,D6470C00005-0016,17,PULSE,Pulse Rate,SUPINE,54,beats/min,54,54,beats/min,6,FOLLOW-UP,FOLLOW-UP,2021-05-19,62
D6470C00005,VS,D6470C00005-0016,18,TEMP,Temperature,SUPINE,37.4,C,37.4,37.4,C,6,FOLLOW-UP,FOLLOW-UP,2021-05-19,62
D6470C00005,VS,D6470C00005-0017,1,SYSBP,Systolic Blood Pressure,SUPINE,142,mmHg,142,142,mmHg,1,SCREENING,SCREENING,2020-12-17,-14
D6470C00005,VS,D6470C00005-0017,2,DIABP,Diastolic Blood Pressure,SUPINE,65,mmHg,65,65,mmHg,1,SCREENING,SCREENING,2020-12-17,-14
D6470C00005,VS,D6470C00005-0017,3,PULSE,Pulse Rate,SUPINE,92,beats/min,92,92,beats/min,1,SCREENING,SCREENING,2020-12-17,-14
D6470C00005,VS,D6470C00005-0017,4,TEMP,Temperature,SUPINE,36.9,C,36.9,36.9,C,1,SCREENING,SCREENING,2020-12-17,-14
D6470C00005,VS,D6470C00005-0017,5,HEIGHT,Height,STANDING,170.0,cm,170.0,170.0,cm,1,SCREENING,SCREENING,2020-12-17,-14
D6470C00005,VS,D6470C00005-0017,6,WEIGHT,Weight,STANDING,100.9,kg,100.9,100.9,kg,1,SCREENING,SCREENING,2020-12-17,-14
D6470C00005,VS,D6470C00005-0017,7,SYSBP,Systolic Blood Pressure,SUPINE,132,mmHg,132,132,mmHg,3,DAY 4 (TP1),TREATMENT,2021-01-04,5
D6470C00005,VS,D6470C00005-0017,8,DIABP,Diastolic Blood Pressure,SUPINE,72,mmHg,72,72,mmHg,3,DAY 4 (TP1),TREATMENT,2021-01-04,5
D6470C00005,VS,D6470C00005-0017,9,PULSE,Pulse Rate,SUPINE,59,beats/min,59,59,beats/min,3,DAY 4 (TP1),TREATMENT,2021-01-04,5
D6470C00005,VS,D6470C00005-0017,10,TEMP,Temperature,SUPINE,36.7,C,36.7,36.7,C,3,DAY 4 (TP1),TREATMENT,2021-01-04,5
D6470C00005,VS,D6470C00005-0017,11,SYSBP,Systolic Blood Pressure,SUPINE,120,mmHg,120,120,mmHg,5,DAY 31 (TP2),TREATMENT,2021-01-31,32
D6470C00005,VS,D6470C00005-0017,12,DIABP,Diastolic Blood Pressure,SUPINE,64,mmHg,64,64,mmHg,5,DAY 31 (TP2),TREATMENT,2021-01-31,32
D6470C00005,VS,D6470C00005-0017,13,PULSE,Pulse Rate,SUPINE,68,beats/min,68,68,beats/min,5,DAY 31 (TP2),TREATMENT,2021-01-31,32
D6470C00005,VS,D6470C00005-0017,14,TEMP,Temperature,SUPINE,37.0,C,37.0,37.0,C,5,DAY 31 (TP2),TREATMENT,2021-01-31,32
D6470C00005,VS,D6470C00005-0017,15,SYSBP,Systolic Blood Pressure,SUPINE,121,mmHg,121,121,mmHg,6,FOLLOW-UP,FOLLOW-UP,2021-03-02,62
D6470C00005,VS,D6470C00005-0017,16,DIABP,Diastolic Blood Pressure,SUPINE,62,mmHg,62,62,mmHg,6,FOLLOW-UP,FOLLOW-UP,2021-03-02,62
D6470C00005,VS,D6470C00005-0017,17,PULSE,Pulse Rate,SUPINE,67,beats/min,67,67,beats/min,6,FOLLOW-UP,FOLLOW-UP,2021-03-02,62
D6470C00005,VS,D6470C00005-0017,18,TEMP,Temperature,SUPINE,37.0,C,37.0,37.0,C,6,FOLLOW-UP,FOLLOW-UP,2021-03-02,62
D6470C00005,VS,D6470C00005-0018,1,SYSBP,Systolic Blood Pressure,SUPINE,130,mmHg,130,130,mmHg,1,SCREENING,SCREENING,2021-03-22,-14
D6470C00005,VS,D6470C00005-0018,2,DIABP,Diastolic Blood Pressure,SUPINE,86,mmHg,86,86,mmHg,1,SCREENING,SCREENING,2021-03-22,-14
D6470C00005,VS,D6470C00005-0018,3,PULSE,Pulse Rate,SUPINE,89,beats/min,89,89,beats/min,1,SCREENING,SCREENING,2021-03-22,-14
D6470C00005,VS,D6470C00005-0018,4,TEMP,Temperature,SUPINE,36.2,C,36.2,36.2,C,1,SCREENING,SCREENING,2021-03-22,-14
D6470C00005,VS,D6470C00005-0018,5,HEIGHT,Height,STANDING,162.1,cm,162.1,162.1,cm,1,SCREENING,SCREENING,2021-03-22,-14
D6470C00005,VS,D6470C00005-0018,6,WEIGHT,Weight,STANDING,100.6,kg,100.6,100.6,kg,1,SCREENING,SCREENING,2021-03-22,-14
D6470C00005,VS,D6470C00005-0018,7,SYSBP,Systolic Blood Pressure,SUPINE,146,mmHg,146,146,mmHg,3,DAY 4 (TP1),TREATMENT,2021-04-09,5
D6470C00005,VS,D6470C00005-0018,8,DIABP,Diastolic Blood Pressure,SUPINE,71,mmHg,71,71,mmHg,3,DAY 4 (TP1),TREATMENT,2021-04-09,5
D6470C00005,VS,D6470C00005-0018,9,PULSE,Pulse Rate,SUPINE,60,beats/min,60,60,beats/min,3,DAY 4 (TP1),TREATMENT,2021-04-09,5
D6470C00005,VS,D6470C00005-0018,10,TEMP,Temperature,SUPINE,36.6,C,36.6,36.6,C,3,DAY 4 (TP1),TREATMENT,2021-04-09,5
D6470C00005,VS,D6470C00005-0018,11,SYSBP,Systolic Blood Pressure,SUPINE,139,mmHg,139,139,mmHg,5,DAY 31 (TP2),TREATMENT,2021-05-06,32
D6470C00005,VS,D6470C00005-0018,12,DIABP,Diastolic Blood Pressure,SUPINE,67,mmHg,67,67,mmHg,5,DAY 31 (TP2),TREATMENT,2021-05-06,32
D6470C00005,VS,D6470C00005-0018,13,PULSE,Pulse Rate,SUPINE,59,beats/min,59,59,beats/min,5,DAY 31 (TP2),TREATMENT,2021-05-06,32
D6470C00005,VS,D6470C00005-0018,14,TEMP,Temperature,SUPINE,36.3,C,36.3,36.3,C,5,DAY 31 (TP2),TREATMENT,2021-05-06,32
D6470C00005,VS,D6470C00005-0018,15,SYSBP,Systolic Blood Pressure,SUPINE,133,mmHg,133,133,mmHg,6,FOLLOW-UP,FOLLOW-UP,2021-06-05,62
D6470C00005,VS,D6470C00005-0018,16,DIABP,Diastolic Blood Pressure,SUPINE,64,mmHg,64,64,mmHg,6,FOLLOW-UP,FOLLOW-UP,2021-06-05,62
D6470C00005,VS,D6470C00005-0018,17,PULSE,Pulse Rate,SUPINE,66,beats/min,66,66,beats/min,6,FOLLOW-UP,FOLLOW-UP,2021-06-05,62
D6470C00005,VS,D6470C00005-0018,18,TEMP,Temperature,SUPINE,36.7,C,36.7,36.7,C,6,FOLLOW-UP,FOLLOW-UP,2021-06-05,62
D6470C00005,VS,D6470C00005-0019,1,SYSBP,Systolic Blood Pressure,SUPINE,130,mmHg,130,130,mmHg,1,SCREENING,SCREENING,2021-01-28,-14
D6470C00005,VS,D6470C00005-0019,2,DIABP,Diastolic Blood Pressure,SUPINE,74,mmHg,74,74,mmHg,1,SCREENING,SCREENING,2021-01-28,-14
D6470C00005,VS,D6470C00005-0019,3,PULSE,Pulse Rate,SUPINE,75,beats/min,75,75,beats/min,1,SCREENING,SCREENING,2021-01-28,-14
D6470C00005,VS,D6470C00005-0019,4,TEMP,Temperature,SUPINE,37.0,C,37.0,37.0,C,1,SCREENING,SCREENING,2021-01-28,-14
D6470C00005,VS,D6470C00005-0019,5,HEIGHT,Height,STANDING,155.2,cm,155.2,155.2,cm,1,SCREENING,SCREENING,2021-01-28,-14
D6470C00005,VS,D6470C00005-0019,6,WEIGHT,Weight,STANDING,91.2,kg,91.2,91.2,kg,1,SCREENING,SCREENING,2021-01-28,-14
D6470C00005,VS,D6470C00005-0019,7,SYSBP,Systolic Blood Pressure,SUPINE,157,mmHg,157,157,mmHg,3,DAY 4 (TP1),TREATMENT,2021-02-15,5
D6470C00005,VS,D6470C00005-0019,8,DIABP,Diastolic Blood Pressure,SUPINE,83,mmHg,83,83,mmHg,3,DAY 4 (TP1),TREATMENT,2021-02-15,5
D6470C00005,VS,D6470C00005-0019,9,PULSE,Pulse Rate,SUPINE,57,beats/min,57,57,beats/min,3,DAY 4 (TP1),TREATMENT,2021-02-15,5
D6470C00005,VS,D6470C00005-0019,10,TEMP,Temperature,SUPINE,36.3,C,36.3,36.3,C,3,DAY 4 (TP1),TREATMENT,2021-02-15,5
D6470C00005,VS,D6470C00005-0019,11,SYSBP,Systolic Blood Pressure,SUPINE,131,mmHg,131,131,mmHg,5,DAY 31 (TP2),TREATMENT,2021-03-14,32
D6470C00005,VS,D6470C00005-0019,12,DIABP,Diastolic Blood Pressure,SUPINE,96,mmHg,96,96,mmHg,5,DAY 31 (TP2),TREATMENT,2021-03-14,32
D6470C00005,VS,D6470C00005-0019,13,PULSE,Pulse Rate,SUPINE,80,beats/min,80,80,beats/min,5,DAY 31 (TP2),TREATMENT,2021-03-14,32
D6470C00005,VS,D6470C00005-0019,14,TEMP,Temperature,SUPINE,36.7,C,36.7,36.7,C,5,DAY 31 (TP2),TREATMENT,2021-03-14,32
D6470C00005,VS,D6470C00005-0019,15,SYSBP,Systolic Blood Pressure,SUPINE,119,mmHg,119,119,mmHg,6,FOLLOW-UP,FOLLOW-UP,2021-04-13,62
D6470C00005,VS,D6470C00005-0019,16,DIABP,Diastolic Blood Pressure,SUPINE,90,mmHg,90,90,mmHg,6,FOLLOW-UP,FOLLOW-UP,2021-04-13,62
D6470C00005,VS,D6470C00005-0019,17,PULSE,Pulse Rate,SUPINE,91,beats/min,91,91,beats/min,6,FOLLOW-UP,FOLLOW-UP,2021-04-13,62
D6470C00005,VS,D6470C00005-0019,18,TEMP,Temperature,SUPINE,37.4,C,37.4,37.4,C,6,FOLLOW-UP,FOLLOW-UP,2021-04-13,62
D6470C00005,VS,D6470C00005-0020,1,SYSBP,Systolic Blood Pressure,SUPINE,148,mmHg,148,148,mmHg,1,SCREENING,SCREENING,2021-03-13,-14
D6470C00005,VS,D6470C00005-0020,2,DIABP,Diastolic Blood Pressure,SUPINE,90,mmHg,90,90,mmHg,1,SCREENING,SCREENING,2021-03-13,-14
D6470C00005,VS,D6470C00005-0020,3,PULSE,Pulse Rate,SUPINE,86,beats/min,86,86,beats/min,1,SCREENING,SCREENING,2021-03-13,-14
D6470C00005,VS,D6470C00005-0020,4,TEMP,Temperature,SUPINE,37.1,C,37.1,37.1,C,1,SCREENING,SCREENING,2021-03-13,-14
D6470C00005,VS,D6470C00005-0020,5,HEIGHT,Height,STANDING,156.8,cm,156.8,156.8,cm,1,SCREENING,SCREENING,2021-03-13,-14
D6470C00005,VS,D6470C00005-0020,6,WEIGHT,Weight,STANDING,93.4,kg,93.4,93.4,kg,1,SCREENING,SCREENING,2021-03-13,-14
D6470C00005,VS,D6470C00005-0020,7,SYSBP,Systolic Blood Pressure,SUPINE,137,mmHg,137,137,mmHg,3,DAY 4 (TP1),TREATMENT,2021-03-31,5
D6470C00005,VS,D6470C00005-0020,8,DIABP,Diastolic Blood Pressure,SUPINE,82,mmHg,82,82,mmHg,3,DAY 4 (TP1),TREATMENT,2021-03-31,5
D6470C00005,VS,D6470C00005-0020,9,PULSE,Pulse Rate,SUPINE,90,beats/min,90,90,beats/min,3,DAY 4 (TP1),TREATMENT,2021-03-31,5
D6470C00005,VS,D6470C00005-0020,10,TEMP,Temperature,SUPINE,36.5,C,36.5,36.5,C,3,DAY 4 (TP1),TREATMENT,2021-03-31,5
D6470C00005,VS,D6470C00005-0020,11,SYSBP,Systolic Blood Pressure,SUPINE,112,mmHg,112,112,mmHg,5,DAY 31 (TP2),TREATMENT,2021-04-27,32
D6470C00005,VS,D6470C00005-0020,12,DIABP,Diastolic Blood Pressure,SUPINE,94,mmHg,94,94,mmHg,5,DAY 31 (TP2),TREATMENT,2021-04-27,32
D6470C00005,VS,D6470C00005-0020,13,PULSE,Pulse Rate,SUPINE,71,beats/min,71,71,beats/min,5,DAY 31 (TP2),TREATMENT,2021-04-27,32
D6470C00005,VS,D6470C00005-0020,14,TEMP,Temperature,SUPINE,36.8,C,36.8,36.8,C,5,DAY 31 (TP2),TREATMENT,2021-04-27,32
D6470C00005,VS,D6470C00005-0020,15,SYSBP,Systolic Blood Pressure,SUPINE,134,mmHg,134,134,mmHg,6,FOLLOW-UP,FOLLOW-UP,2021-05-27,62
D6470C00005,VS,D6470C00005-0020,16,DIABP,Diastolic Blood Pressure,SUPINE,82,mmHg,82,82,mmHg,6,FOLLOW-UP,FOLLOW-UP,2021-05-27,62
D6470C00005,VS,D6470C00005-0020,17,PULSE,Pulse Rate,SUPINE,60,beats/min,60,60,beats/min,6,FOLLOW-UP,FOLLOW-UP,2021-05-27,62
D6470C00005,VS,D6470C00005-0020,18,TEMP,Temperature,SUPINE,36.4,C,36.4,36.4,C,6,FOLLOW-UP,FOLLOW-UP,2021-05-27,62
D6470C00005,VS,D6470C00005-0021,1,SYSBP,Systolic Blood Pressure,SUPINE,155,mmHg,155,155,mmHg,1,SCREENING,SCREENING,2021-02-11,-14
D6470C00005,VS,D6470C00005-0021,2,DIABP,Diastolic Blood Pressure,SUPINE,68,mmHg,68,68,mmHg,1,SCREENING,SCREENING,2021-02-11,-14
D6470C00005,VS,D6470C00005-0021,3,PULSE,Pulse Rate,SUPINE,71,beats/min,71,71,beats/min,1,SCREENING,SCREENING,2021-02-11,-14
D6470C00005,VS,D6470C00005-0021,4,TEMP,Temperature,SUPINE,36.7,C,36.7,36.7,C,1,SCREENING,SCREENING,2021-02-11,-14
D6470C00005,VS,D6470C00005-0021,5,HEIGHT,Height,STANDING,167.3,cm,167.3,167.3,cm,1,SCREENING,SCREENING,2021-02-11,-14
D6470C00005,VS,D6470C00005-0021,6,WEIGHT,Weight,STANDING,96.8,kg,96.8,96.8,kg,1,SCREENING,SCREENING,2021-02-11,-14
D6470C00005,VS,D6470C00005-0021,7,SYSBP,Systolic Blood Pressure,SUPINE,123,mmHg,123,123,mmHg,3,DAY 4 (TP1),TREATMENT,2021-03-01,5
D6470C00005,VS,D6470C00005-0021,8,DIABP,Diastolic Blood Pressure,SUPINE,91,mmHg,91,91,mmHg,3,DAY 4 (TP1),TREATMENT,2021-03-01,5
D6470C00005,VS,D6470C00005-0021,9,PULSE,Pulse Rate,SUPINE,86,beats/min,86,86,beats/min,3,DAY 4 (TP1),TREATMENT,2021-03-01,5
D6470C00005,VS,D6470C00005-0021,10,TEMP,Temperature,SUPINE,36.9,C,36.9,36.9,C,3,DAY 4 (TP1),TREATMENT,2021-03-01,5
D6470C00005,VS,D6470C00005-0021,11,SYSBP,Systolic Blood Pressure,SUPINE,122,mmHg,122,122,mmHg,5,DAY 31 (TP2),TREATMENT,2021-03-28,32
D6470C00005,VS,D6470C00005-0021,12,DIABP,Diastolic Blood Pressure,SUPINE,79,mmHg,79,79,mmHg,5,DAY 31 (TP2),TREATMENT,2021-03-28,32
D6470C00005,VS,D6470C00005-0021,13,PULSE,Pulse Rate,SUPINE,59,beats/min,59,59,beats/min,5,DAY 31 (TP2),TREATMENT,2021-03-28,32
D6470C00005,VS,D6470C00005-0021,14,TEMP,Temperature,SUPINE,36.9,C,36.9,36.9,C,5,DAY 31 (TP2),TREATMENT,2021-03-28,32
D6470C00005,VS,D6470C00005-0021,15,SYSBP,Systolic Blood Pressure,SUPINE,140,mmHg,140,140,mmHg,6,FOLLOW-UP,FOLLOW-UP,2021-04-27,62
D6470C00005,VS,D6470C00005-0021,16,DIABP,Diastolic Blood Pressure,SUPINE,64,mmHg,64,64,mmHg,6,FOLLOW-UP,FOLLOW-UP,2021-04-27,62
D6470C00005,VS,D6470C00005-0021,17,PULSE,Pulse Rate,SUPINE,84,beats/min,84,84,beats/min,6,FOLLOW-UP,FOLLOW-UP,2021-04-27,62
D6470C00005,VS,D6470C00005-0021,18,TEMP,Temperature,SUPINE,37.1,C,37.1,37.1,C,6,FOLLOW-UP,FOLLOW-UP,2021-04-27,62
D6470C00005,VS,D6470C00005-0022,1,SYSBP,Systolic Blood Pressure,SUPINE,133,mmHg,133,133,mmHg,1,SCREENING,SCREENING,2021-03-10,-14
D6470C00005,VS,D6470C00005-0022,2,DIABP,Diastolic Blood Pressure,SUPINE,95,mmHg,95,95,mmHg,1,SCREENING,SCREENING,2021-03-10,-14
D6470C00005,VS,D6470C00005-0022,3,PULSE,Pulse Rate,SUPINE,60,beats/min,60,60,beats/min,1,SCREENING,SCREENING,2021-03-10,-14
D6470C00005,VS,D6470C00005-0022,4,TEMP,Temperature,SUPINE,37.3,C,37.3,37.3,C,1,SCREENING,SCREENING,2021-03-10,-14
D6470C00005,VS,D6470C00005-0022,5,HEIGHT,Height,STANDING,166.9,cm,166.9,166.9,cm,1,SCREENING,SCREENING,2021-03-10,-14
D6470C00005,VS,D6470C00005-0022,6,WEIGHT,Weight,STANDING,94.3,kg,94.3,94.3,kg,1,SCREENING,SCREENING,2021-03-10,-14
D6470C00005,VS,D6470C00005-0022,7,SYSBP,Systolic Blood Pressure,SUPINE,108,mmHg,108,108,mmHg,3,DAY 4 (TP1),TREATMENT,2021-03-28,5
D6470C00005,VS,D6470C00005-0022,8,DIABP,Diastolic Blood Pressure,SUPINE,77,mmHg,77,77,mmHg,3,DAY 4 (TP1),TREATMENT,2021-03-28,5
D6470C00005,VS,D6470C00005-0022,9,PULSE,Pulse Rate,SUPINE,56,beats/min,56,56,beats/min,3,DAY 4 (TP1),TREATMENT,2021-03-28,5
D6470C00005,VS,D6470C00005-0022,10,TEMP,Temperature,SUPINE,36.5,C,36.5,36.5,C,3,DAY 4 (TP1),TREATMENT,2021-03-28,5
D6470C00005,VS,D6470C00005-0022,11,SYSBP,Systolic Blood Pressure,SUPINE,111,mmHg,111,111,mmHg,5,DAY 31 (TP2),TREATMENT,2021-04-24,32
D6470C00005,VS,D6470C00005-0022,12,DIABP,Diastolic Blood Pressure,SUPINE,87,mmHg,87,87,mmHg,5,DAY 31 (TP2),TREATMENT,2021-04-24,32
D6470C00005,VS,D6470C00005-0022,13,PULSE,Pulse Rate,SUPINE,79,beats/min,79,79,beats/min,5,DAY 31 (TP2),TREATMENT,2021-04-24,32
D6470C00005,VS,D6470C00005-0022,14,TEMP,Temperature,SUPINE,37.1,C,37.1,37.1,C,5,DAY 31 (TP2),TREATMENT,2021-04-24,32
D6470C00005,VS,D6470C00005-0022,15,SYSBP,Systolic Blood Pressure,SUPINE,150,mmHg,150,150,mmHg,6,FOLLOW-UP,FOLLOW-UP,2021-05-24,62
D6470C00005,VS,D6470C00005-0022,16,DIABP,Diastolic Blood Pressure,SUPINE,83,mmHg,83,83,mmHg,6,FOLLOW-UP,FOLLOW-UP,2021-05-24,62
D6470C00005,VS,D6470C00005-0022,17,PULSE,Pulse Rate,SUPINE,60,beats/min,60,60,beats/min,6,FOLLOW-UP,FOLLOW-UP,2021-05-24,62
D6470C00005,VS,D6470C00005-0022,18,TEMP,Temperature,SUPINE,37.2,C,37.2,37.2,C,6,FOLLOW-UP,FOLLOW-UP,2021-05-24,62
D6470C00005,VS,D6470C00005-0023,1,SYSBP,Systolic Blood Pressure,SUPINE,150,mmHg,150,150,mmHg,1,SCREENING,SCREENING,2021-03-13,-14
D6470C00005,VS,D6470C00005-0023,2,DIABP,Diastolic Blood Pressure,SUPINE,74,mmHg,74,74,mmHg,1,SCREENING,SCREENING,2021-03-13,-14
D6470C00005,VS,D6470C00005-0023,3,PULSE,Pulse Rate,SUPINE,92,beats/min,92,92,beats/min,1,SCREENING,SCREENING,2021-03-13,-14
D6470C00005,VS,D6470C00005-0023,4,TEMP,Temperature,SUPINE,37.2,C,37.2,37.2,C,1,SCREENING,SCREENING,2021-03-13,-14
D6470C00005,VS,D6470C00005-0023,5,HEIGHT,Height,STANDING,166.4,cm,166.4,166.4,cm,1,SCREENING,SCREENING,2021-03-13,-14
D6470C00005,VS,D6470C00005-0023,6,WEIGHT,Weight,STANDING,102.9,kg,102.9,102.9,kg,1,SCREENING,SCREENING,2021-03-13,-14
D6470C00005,VS,D6470C00005-0023,7,SYSBP,Systolic Blood Pressure,SUPINE,139,mmHg,139,139,mmHg,3,DAY 4 (TP1),TREATMENT,2021-03-31,5
D6470C00005,VS,D6470C00005-0023,8,DIABP,Diastolic Blood Pressure,SUPINE,70,mmHg,70,70,mmHg,3,DAY 4 (TP1),TREATMENT,2021-03-31,5
D6470C00005,VS,D6470C00005-0023,9,PULSE,Pulse Rate,SUPINE,76,beats/min,76,76,beats/min,3,DAY 4 (TP1),TREATMENT,2021-03-31,5
D6470C00005,VS,D6470C00005-0023,10,TEMP,Temperature,SUPINE,36.6,C,36.6,36.6,C,3,DAY 4 (TP1),TREATMENT,2021-03-31,5
D6470C00005,VS,D6470C00005-0023,11,SYSBP,Systolic Blood Pressure,SUPINE,137,mmHg,137,137,mmHg,5,DAY 31 (TP2),TREATMENT,2021-04-27,32
D6470C00005,VS,D6470C00005-0023,12,DIABP,Diastolic Blood Pressure,SUPINE,92,mmHg,92,92,mmHg,5,DAY 31 (TP2),TREATMENT,2021-04-27,32
D6470C00005,VS,D6470C00005-0023,13,PULSE,Pulse Rate,SUPINE,56,beats/min,56,56,beats/min,5,DAY 31 (TP2),TREATMENT,2021-04-27,32
D6470C00005,VS,D6470C00005-0023,14,TEMP,Temperature,SUPINE,36.8,C,36.8,36.8,C,5,DAY 31 (TP2),TREATMENT,2021-04-27,32
D6470C00005,VS,D6470C00005-0023,15,SYSBP,Systolic Blood Pressure,SUPINE,107,mmHg,107,107,mmHg,6,FOLLOW-UP,FOLLOW-UP,2021-05-27,62
D6470C00005,VS,D6470C00005-0023,16,DIABP,Diastolic Blood Pressure,SUPINE,89,mmHg,89,89,mmHg,6,FOLLOW-UP,FOLLOW-UP,2021-05-27,62
D6470C00005,VS,D6470C00005-0023,17,PULSE,Pulse Rate,SUPINE,55,beats/min,55,55,beats/min,6,FOLLOW-UP,FOLLOW-UP,2021-05-27,62
D6470C00005,VS,D6470C00005-0023,18,TEMP,Temperature,SUPINE,36.4,C,36.4,36.4,C,6,FOLLOW-UP,FOLLOW-UP,2021-05-27,62
D6470C00005,VS,D6470C00005-0024,1,SYSBP,Systolic Blood Pressure,SUPINE,146,mmHg,146,146,mmHg,1,SCREENING,SCREENING,2021-01-28,-14
D6470C00005,VS,D6470C00005-0024,2,DIABP,Diastolic Blood Pressure,SUPINE,81,mmHg,81,81,mmHg,1,SCREENING,SCREENING,2021-01-28,-14
D6470C00005,VS,D6470C00005-0024,3,PULSE,Pulse Rate,SUPINE,65,beats/min,65,65,beats/min,1,SCREENING,SCREENING,2021-01-28,-14
D6470C00005,VS,D6470C00005-0024,4,TEMP,Temperature,SUPINE,36.5,C,36.5,36.5,C,1,SCREENING,SCREENING,2021-01-28,-14
D6470C00005,VS,D6470C00005-0024,5,HEIGHT,Height,STANDING,161.9,cm,161.9,161.9,cm,1,SCREENING,SCREENING,2021-01-28,-14
D6470C00005,VS,D6470C00005-0024,6,WEIGHT,Weight,STANDING,101.9,kg,101.9,101.9,kg,1,SCREENING,SCREENING,2021-01-28,-14
D6470C00005,VS,D6470C00005-0024,7,SYSBP,Systolic Blood Pressure,SUPINE,150,mmHg,150,150,mmHg,3,DAY 4 (TP1),TREATMENT,2021-02-15,5
D6470C00005,VS,D6470C00005-0024,8,DIABP,Diastolic Blood Pressure,SUPINE,89,mmHg,89,89,mmHg,3,DAY 4 (TP1),TREATMENT,2021-02-15,5
D6470C00005,VS,D6470C00005-0024,9,PULSE,Pulse Rate,SUPINE,92,beats/min,92,92,beats/min,3,DAY 4 (TP1),TREATMENT,2021-02-15,5
D6470C00005,VS,D6470C00005-0024,10,TEMP,Temperature,SUPINE,37.3,C,37.3,37.3,C,3,DAY 4 (TP1),TREATMENT,2021-02-15,5
D6470C00005,VS,D6470C00005-0024,11,SYSBP,Systolic Blood Pressure,SUPINE,157,mmHg,157,157,mmHg,5,DAY 31 (TP2),TREATMENT,2021-03-14,32
D6470C00005,VS,D6470C00005-0024,12,DIABP,Diastolic Blood Pressure,SUPINE,72,mmHg,72,72,mmHg,5,DAY 31 (TP2),TREATMENT,2021-03-14,32
D6470C00005,VS,D6470C00005-0024,13,PULSE,Pulse Rate,SUPINE,72,beats/min,72,72,beats/min,5,DAY 31 (TP2),TREATMENT,2021-03-14,32
D6470C00005,VS,D6470C00005-0024,14,TEMP,Temperature,SUPINE,36.8,C,36.8,36.8,C,5,DAY 31 (TP2),TREATMENT,2021-03-14,32
D6470C00005,VS,D6470C00005-0024,15,SYSBP,Systolic Blood Pressure,SUPINE,109,mmHg,109,109,mmHg,6,FOLLOW-UP,FOLLOW-UP,2021-04-13,62
D6470C00005,VS,D6470C00005-0024,16,DIABP,Diastolic Blood Pressure,SUPINE,94,mmHg,94,94,mmHg,6,FOLLOW-UP,FOLLOW-UP,2021-04-13,62
D6470C00005,VS,D6470C00005-0024,17,PULSE,Pulse Rate,SUPINE,58,beats/min,58,58,beats/min,6,FOLLOW-UP,FOLLOW-UP,2021-04-13,62
D6470C00005,VS,D6470C00005-0024,18,TEMP,Temperature,SUPINE,37.2,C,37.2,37.2,C,6,FOLLOW-UP,FOLLOW-UP,2021-04-13,62
D6470C00005,VS,D6470C00005-0025,1,SYSBP,Systolic Blood Pressure,SUPINE,126,mmHg,126,126,mmHg,1,SCREENING,SCREENING,2020-11-30,-14
D6470C00005,VS,D6470C00005-0025,2,DIABP,Diastolic Blood Pressure,SUPINE,91,mmHg,91,91,mmHg,1,SCREENING,SCREENING,2020-11-30,-14
D6470C00005,VS,D6470C00005-0025,3,PULSE,Pulse Rate,SUPINE,60,beats/min,60,60,beats/min,1,SCREENING,SCREENING,2020-11-30,-14
D6470C00005,VS,D6470C00005-0025,4,TEMP,Temperature,SUPINE,36.8,C,36.8,36.8,C,1,SCREENING,SCREENING,2020-11-30,-14
D6470C00005,VS,D6470C00005-0025,5,HEIGHT,Height,STANDING,156.6,cm,156.6,156.6,cm,1,SCREENING,SCREENING,2020-11-30,-14
D6470C00005,VS,D6470C00005-0025,6,WEIGHT,Weight,STANDING,75.4,kg,75.4,75.4,kg,1,SCREENING,SCREENING,2020-11-30,-14
D6470C00005,VS,D6470C00005-0025,7,SYSBP,Systolic Blood Pressure,SUPINE,112,mmHg,112,112,mmHg,3,DAY 4 (TP1),TREATMENT,2020-12-18,5
D6470C00005,VS,D6470C00005-0025,8,DIABP,Diastolic Blood Pressure,SUPINE,93,mmHg,93,93,mmHg,3,DAY 4 (TP1),TREATMENT,2020-12-18,5
D6470C00005,VS,D6470C00005-0025,9,PULSE,Pulse Rate,SUPINE,85,beats/min,85,85,beats/min,3,DAY 4 (TP1),TREATMENT,2020-12-18,5
D6470C00005,VS,D6470C00005-0025,10,TEMP,Temperature,SUPINE,36.7,C,36.7,36.7,C,3,DAY 4 (TP1),TREATMENT,2020-12-18,5
D6470C00005,VS,D6470C00005-0025,11,SYSBP,Systolic Blood Pressure,SUPINE,156,mmHg,156,156,mmHg,5,DAY 31 (TP2),TREATMENT,2021-01-14,32
D6470C00005,VS,D6470C00005-0025,12,DIABP,Diastolic Blood Pressure,SUPINE,80,mmHg,80,80,mmHg,5,DAY 31 (TP2),TREATMENT,2021-01-14,32
D6470C00005,VS,D6470C00005-0025,13,PULSE,Pulse Rate,SUPINE,72,beats/min,72,72,beats/min,5,DAY 31 (TP2),TREATMENT,2021-01-14,32
D6470C00005,VS,D6470C00005-0025,14,TEMP,Temperature,SUPINE,36.3,C,36.3,36.3,C,5,DAY 31 (TP2),TREATMENT,2021-01-14,32
D6470C00005,VS,D6470C00005-0025,15,SYSBP,Systolic Blood Pressure,SUPINE,119,mmHg,119,119,mmHg,6,FOLLOW-UP,FOLLOW-UP,2021-02-13,62
D6470C00005,VS,D6470C00005-0025,16,DIABP,Diastolic Blood Pressure,SUPINE,64,mmHg,64,64,mmHg,6,FOLLOW-UP,FOLLOW-UP,2021-02-13,62
D6470C00005,VS,D6470C00005-0025,17,PULSE,Pulse Rate,SUPINE,87,beats/min,87,87,beats/min,6,FOLLOW-UP,FOLLOW-UP,2021-02-13,62
D6470C00005,VS,D6470C00005-0025,18,TEMP,Temperature,SUPINE,36.8,C,36.8,36.8,C,6,FOLLOW-UP,FOLLOW-UP,2021-02-13,62
D6470C00005,VS,D6470C00005-0026,1,SYSBP,Systolic Blood Pressure,SUPINE,124,mmHg,124,124,mmHg,1,SCREENING,SCREENING,2021-01-25,-14
D6470C00005,VS,D6470C00005-0026,2,DIABP,Diastolic Blood Pressure,SUPINE,71,mmHg,71,71,mmHg,1,SCREENING,SCREENING,2021-01-25,-14
D6470C00005,VS,D6470C00005-0026,3,PULSE,Pulse Rate,SUPINE,85,beats/min,85,85,beats/min,1,SCREENING,SCREENING,2021-01-25,-14
D6470C00005,VS,D6470C00005-0026,4,TEMP,Temperature,SUPINE,36.5,C,36.5,36.5,C,1,SCREENING,SCREENING,2021-01-25,-14
D6470C00005,VS,D6470C00005-0026,5,HEIGHT,Height,STANDING,157.4,cm,157.4,157.4,cm,1,SCREENING,SCREENING,2021-01-25,-14
D6470C00005,VS,D6470C00005-0026,6,WEIGHT,Weight,STANDING,91.4,kg,91.4,91.4,kg,1,SCREENING,SCREENING,2021-01-25,-14
D6470C00005,VS,D6470C00005-0026,7,SYSBP,Systolic Blood Pressure,SUPINE,149,mmHg,149,149,mmHg,3,DAY 4 (TP1),TREATMENT,2021-02-12,5
D6470C00005,VS,D6470C00005-0026,8,DIABP,Diastolic Blood Pressure,SUPINE,95,mmHg,95,95,mmHg,3,DAY 4 (TP1),TREATMENT,2021-02-12,5
D6470C00005,VS,D6470C00005-0026,9,PULSE,Pulse Rate,SUPINE,74,beats/min,74,74,beats/min,3,DAY 4 (TP1),TREATMENT,2021-02-12,5
D6470C00005,VS,D6470C00005-0026,10,TEMP,Temperature,SUPINE,37.4,C,37.4,37.4,C,3,DAY 4 (TP1),TREATMENT,2021-02-12,5
D6470C00005,VS,D6470C00005-0026,11,SYSBP,Systolic Blood Pressure,SUPINE,120,mmHg,120,120,mmHg,5,DAY 31 (TP2),TREATMENT,2021-03-11,32
D6470C00005,VS,D6470C00005-0026,12,DIABP,Diastolic Blood Pressure,SUPINE,90,mmHg,90,90,mmHg,5,DAY 31 (TP2),TREATMENT,2021-03-11,32
D6470C00005,VS,D6470C00005-0026,13,PULSE,Pulse Rate,SUPINE,87,beats/min,87,87,beats/min,5,DAY 31 (TP2),TREATMENT,2021-03-11,32
D6470C00005,VS,D6470C00005-0026,14,TEMP,Temperature,SUPINE,36.8,C,36.8,36.8,C,5,DAY 31 (TP2),TREATMENT,2021-03-11,32
D6470C00005,VS,D6470C00005-0026,15,SYSBP,Systolic Blood Pressure,SUPINE,111,mmHg,111,111,mmHg,6,FOLLOW-UP,FOLLOW-UP,2021-04-10,62
D6470C00005,VS,D6470C00005-0026,16,DIABP,Diastolic Blood Pressure,SUPINE,87,mmHg,87,87,mmHg,6,FOLLOW-UP,FOLLOW-UP,2021-04-10,62
D6470C00005,VS,D6470C00005-0026,17,PULSE,Pulse Rate,SUPINE,61,beats/min,61,61,beats/min,6,FOLLOW-UP,FOLLOW-UP,2021-04-10,62
D6470C00005,VS,D6470C00005-0026,18,TEMP,Temperature,SUPINE,36.3,C,36.3,36.3,C,6,FOLLOW-UP,FOLLOW-UP,2021-04-10,62
D6470C00005,VS,D6470C00005-0027,1,SYSBP,Systolic Blood Pressure,SUPINE,154,mmHg,154,154,mmHg,1,SCREENING,SCREENING,2021-01-01,-14
D6470C00005,VS,D6470C00005-0027,2,DIABP,Diastolic Blood Pressure,SUPINE,74,mmHg,74,74,mmHg,1,SCREENING,SCREENING,2021-01-01,-14
D6470C00005,VS,D6470C00005-0027,3,PULSE,Pulse Rate,SUPINE,57,beats/min,57,57,beats/min,1,SCREENING,SCREENING,2021-01-01,-14
D6470C00005,VS,D6470C00005-0027,4,TEMP,Temperature,SUPINE,37.0,C,37.0,37.0,C,1,SCREENING,SCREENING,2021-01-01,-14
D6470C00005,VS,D6470C00005-0027,5,HEIGHT,Height,STANDING,158.2,cm,158.2,158.2,cm,1,SCREENING,SCREENING,2021-01-01,-14
D6470C00005,VS,D6470C00005-0027,6,WEIGHT,Weight,STANDING,85.9,kg,85.9,85.9,kg,1,SCREENING,SCREENING,2021-01-01,-14
D6470C00005,VS,D6470C00005-0027,7,SYSBP,Systolic Blood Pressure,SUPINE,149,mmHg,149,149,mmHg,3,DAY 4 (TP1),TREATMENT,2021-01-19,5
D6470C00005,VS,D6470C00005-0027,8,DIABP,Diastolic Blood Pressure,SUPINE,86,mmHg,86,86,mmHg,3,DAY 4 (TP1),TREATMENT,2021-01-19,5
D6470C00005,VS,D6470C00005-0027,9,PULSE,Pulse Rate,SUPINE,73,beats/min,73,73,beats/min,3,DAY 4 (TP1),TREATMENT,2021-01-19,5
D6470C00005,VS,D6470C00005-0027,10,TEMP,Temperature,SUPINE,36.5,C,36.5,36.5,C,3,DAY 4 (TP1),TREATMENT,2021-01-19,5
D6470C00005,VS,D6470C00005-0027,11,SYSBP,Systolic Blood Pressure,SUPINE,154,mmHg,154,154,mmHg,5,DAY 31 (TP2),TREATMENT,2021-02-15,32
D6470C00005,VS,D6470C00005-0027,12,DIABP,Diastolic Blood Pressure,SUPINE,73,mmHg,73,73,mmHg,5,DAY 31 (TP2),TREATMENT,2021-02-15,32
D6470C00005,VS,D6470C00005-0027,13,PULSE,Pulse Rate,SUPINE,66,beats/min,66,66,beats/min,5,DAY 31 (TP2),TREATMENT,2021-02-15,32
D6470C00005,VS,D6470C00005-0027,14,TEMP,Temperature,SUPINE,36.4,C,36.4,36.4,C,5,DAY 31 (TP2),TREATMENT,2021-02-15,32
D6470C00005,VS,D6470C00005-0027,15,SYSBP,Systolic Blood Pressure,SUPINE,120,mmHg,120,120,mmHg,6,FOLLOW-UP,FOLLOW-UP,2021-03-17,62
D6470C00005,VS,D6470C00005-0027,16,DIABP,Diastolic Blood Pressure,SUPINE,69,mmHg,69,69,mmHg,6,FOLLOW-UP,FOLLOW-UP,2021-03-17,62
D6470C00005,VS,D6470C00005-0027,17,PULSE,Pulse Rate,SUPINE,54,beats/min,54,54,beats/min,6,FOLLOW-UP,FOLLOW-UP,2021-03-17,62
D6470C00005,VS,D6470C00005-0027,18,TEMP,Temperature,SUPINE,37.1,C,37.1,37.1,C,6,FOLLOW-UP,FOLLOW-UP,2021-03-17,62
D6470C00005,VS,D6470C00005-0028,1,SYSBP,Systolic Blood Pressure,SUPINE,122,mmHg,122,122,mmHg,1,SCREENING,SCREENING,2021-03-07,-14
D6470C00005,VS,D6470C00005-0028,2,DIABP,Diastolic Blood Pressure,SUPINE,95,mmHg,95,95,mmHg,1,SCREENING,SCREENING,2021-03-07,-14
D6470C00005,VS,D6470C00005-0028,3,PULSE,Pulse Rate,SUPINE,67,beats/min,67,67,beats/min,1,SCREENING,SCREENING,2021-03-07,-14
D6470C00005,VS,D6470C00005-0028,4,TEMP,Temperature,SUPINE,36.4,C,36.4,36.4,C,1,SCREENING,SCREENING,2021-03-07,-14
D6470C00005,VS,D6470C00005-0028,5,HEIGHT,Height,STANDING,176.4,cm,176.4,176.4,cm,1,SCREENING,SCREENING,2021-03-07,-14
D6470C00005,VS,D6470C00005-0028,6,WEIGHT,Weight,STANDING,65.2,kg,65.2,65.2,kg,1,SCREENING,SCREENING,2021-03-07,-14
D6470C00005,VS,D6470C00005-0028,7,SYSBP,Systolic Blood Pressure,SUPINE,141,mmHg,141,141,mmHg,3,DAY 4 (TP1),TREATMENT,2021-03-25,5
D6470C00005,VS,D6470C00005-0028,8,DIABP,Diastolic Blood Pressure,SUPINE,80,mmHg,80,80,mmHg,3,DAY 4 (TP1),TREATMENT,2021-03-25,5
D6470C00005,VS,D6470C00005-0028,9,PULSE,Pulse Rate,SUPINE,78,beats/min,78,78,beats/min,3,DAY 4 (TP1),TREATMENT,2021-03-25,5
D6470C00005,VS,D6470C00005-0028,10,TEMP,Temperature,SUPINE,36.6,C,36.6,36.6,C,3,DAY 4 (TP1),TREATMENT,2021-03-25,5
D6470C00005,VS,D6470C00005-0028,11,SYSBP,Systolic Blood Pressure,SUPINE,133,mmHg,133,133,mmHg,5,DAY 31 (TP2),TREATMENT,2021-04-21,32
D6470C00005,VS,D6470C00005-0028,12,DIABP,Diastolic Blood Pressure,SUPINE,77,mmHg,77,77,mmHg,5,DAY 31 (TP2),TREATMENT,2021-04-21,32
D6470C00005,VS,D6470C00005-0028,13,PULSE,Pulse Rate,SUPINE,64,beats/min,64,64,beats/min,5,DAY 31 (TP2),TREATMENT,2021-04-21,32
D6470C00005,VS,D6470C00005-0028,14,TEMP,Temperature,SUPINE,37.1,C,37.1,37.1,C,5,DAY 31 (TP2),TREATMENT,2021-04-21,32
D6470C00005,VS,D6470C00005-0028,15,SYSBP,Systolic Blood Pressure,SUPINE,139,mmHg,139,139,mmHg,6,FOLLOW-UP,FOLLOW-UP,2021-05-21,62
D6470C00005,VS,D6470C00005-0028,16,DIABP,Diastolic Blood Pressure,SUPINE,89,mmHg,89,89,mmHg,6,FOLLOW-UP,FOLLOW-UP,2021-05-21,62
D6470C00005,VS,D6470C00005-0028,17,PULSE,Pulse Rate,SUPINE,85,beats/min,85,85,beats/min,6,FOLLOW-UP,FOLLOW-UP,2021-05-21,62
D6470C00005,VS,D6470C00005-0028,18,TEMP,Temperature,SUPINE,36.4,C,36.4,36.4,C,6,FOLLOW-UP,FOLLOW-UP,2021-05-21,62
D6470C00005,VS,D6470C00005-0029,1,SYSBP,Systolic Blood Pressure,SUPINE,125,mmHg,125,125,mmHg,1,SCREENING,SCREENING,2021-03-06,-14
D6470C00005,VS,D6470C00005-0029,2,DIABP,Diastolic Blood Pressure,SUPINE,72,mmHg,72,72,mmHg,1,SCREENING,SCREENING,2021-03-06,-14
D6470C00005,VS,D6470C00005-0029,3,PULSE,Pulse Rate,SUPINE,62,beats/min,62,62,beats/min,1,SCREENING,SCREENING,2021-03-06,-14
D6470C00005,VS,D6470C00005-0029,4,TEMP,Temperature,SUPINE,36.8,C,36.8,36.8,C,1,SCREENING,SCREENING,2021-03-06,-14
D6470C00005,VS,D6470C00005-0029,5,HEIGHT,Height,STANDING,189.2,cm,189.2,189.2,cm,1,SCREENING,SCREENING,2021-03-06,-14
D6470C00005,VS,D6470C00005-0029,6,WEIGHT,Weight,STANDING,97.7,kg,97.7,97.7,kg,1,SCREENING,SCREENING,2021-03-06,-14
D6470C00005,VS,D6470C00005-0029,7,SYSBP,Systolic Blood Pressure,SUPINE,133,mmHg,133,133,mmHg,3,DAY 4 (TP1),TREATMENT,2021-03-24,5
D6470C00005,VS,D6470C00005-0029,8,DIABP,Diastolic Blood Pressure,SUPINE,83,mmHg,83,83,mmHg,3,DAY 4 (TP1),TREATMENT,2021-03-24,5
D6470C00005,VS,D6470C00005-0029,9,PULSE,Pulse Rate,SUPINE,76,beats/min,76,76,beats/min,3,DAY 4 (TP1),TREATMENT,2021-03-24,5
D6470C00005,VS,D6470C00005-0029,10,TEMP,Temperature,SUPINE,36.4,C,36.4,36.4,C,3,DAY 4 (TP1),TREATMENT,2021-03-24,5
D6470C00005,VS,D6470C00005-0029,11,SYSBP,Systolic Blood Pressure,SUPINE,118,mmHg,118,118,mmHg,5,DAY 31 (TP2),TREATMENT,2021-04-20,32
D6470C00005,VS,D6470C00005-0029,12,DIABP,Diastolic Blood Pressure,SUPINE,69,mmHg,69,69,mmHg,5,DAY 31 (TP2),TREATMENT,2021-04-20,32
D6470C00005,VS,D6470C00005-0029,13,PULSE,Pulse Rate,SUPINE,70,beats/min,70,70,beats/min,5,DAY 31 (TP2),TREATMENT,2021-04-20,32
D6470C00005,VS,D6470C00005-0029,14,TEMP,Temperature,SUPINE,36.8,C,36.8,36.8,C,5,DAY 31 (TP2),TREATMENT,2021-04-20,32
D6470C00005,VS,D6470C00005-0029,15,SYSBP,Systolic Blood Pressure,SUPINE,148,mmHg,148,148,mmHg,6,FOLLOW-UP,FOLLOW-UP,2021-05-20,62
D6470C00005,VS,D6470C00005-0029,16,DIABP,Diastolic Blood Pressure,SUPINE,92,mmHg,92,92,mmHg,6,FOLLOW-UP,FOLLOW-UP,2021-05-20,62
D6470C00005,VS,D6470C00005-0029,17,PULSE,Pulse Rate,SUPINE,72,beats/min,72,72,beats/min,6,FOLLOW-UP,FOLLOW-UP,2021-05-20,62
D6470C00005,VS,D6470C00005-0029,18,TEMP,Temperature,SUPINE,36.4,C,36.4,36.4,C,6,FOLLOW-UP,FOLLOW-UP,2021-05-20,62
D6470C00005,VS,D6470C00005-0030,1,SYSBP,Systolic Blood Pressure,SUPINE,144,mmHg,144,144,mmHg,1,SCREENING,SCREENING,2021-01-03,-14
D6470C00005,VS,D6470C00005-0030,2,DIABP,Diastolic Blood Pressure,SUPINE,96,mmHg,96,96,mmHg,1,SCREENING,SCREENING,2021-01-03,-14
D6470C00005,VS,D6470C00005-0030,3,PULSE,Pulse Rate,SUPINE,79,beats/min,79,79,beats/min,1,SCREENING,SCREENING,2021-01-03,-14
D6470C00005,VS,D6470C00005-0030,4,TEMP,Temperature,SUPINE,36.3,C,36.3,36.3,C,1,SCREENING,SCREENING,2021-01-03,-14
D6470C00005,VS,D6470C00005-0030,5,HEIGHT,Height,STANDING,172.5,cm,172.5,172.5,cm,1,SCREENING,SCREENING,2021-01-03,-14
D6470C00005,VS,D6470C00005-0030,6,WEIGHT,Weight,STANDING,85.5,kg,85.5,85.5,kg,1,SCREENING,SCREENING,2021-01-03,-14
D6470C00005,VS,D6470C00005-0030,7,SYSBP,Systolic Blood Pressure,SUPINE,130,mmHg,130,130,mmHg,3,DAY 4 (TP1),TREATMENT,2021-01-21,5
D6470C00005,VS,D6470C00005-0030,8,DIABP,Diastolic Blood Pressure,SUPINE,87,mmHg,87,87,mmHg,3,DAY 4 (TP1),TREATMENT,2021-01-21,5
D6470C00005,VS,D6470C00005-0030,9,PULSE,Pulse Rate,SUPINE,78,beats/min,78,78,beats/min,3,DAY 4 (TP1),TREATMENT,2021-01-21,5
D6470C00005,VS,D6470C00005-0030,10,TEMP,Temperature,SUPINE,36.5,C,36.5,36.5,C,3,DAY 4 (TP1),TREATMENT,2021-01-21,5
D6470C00005,VS,D6470C00005-0030,11,SYSBP,Systolic Blood Pressure,SUPINE,158,mmHg,158,158,mmHg,5,DAY 31 (TP2),TREATMENT,2021-02-17,32
D6470C00005,VS,D6470C00005-0030,12,DIABP,Diastolic Blood Pressure,SUPINE,84,mmHg,84,84,mmHg,5,DAY 31 (TP2),TREATMENT,2021-02-17,32
D6470C00005,VS,D6470C00005-0030,13,PULSE,Pulse Rate,SUPINE,70,beats/min,70,70,beats/min,5,DAY 31 (TP2),TREATMENT,2021-02-17,32
D6470C00005,VS,D6470C00005-0030,14,TEMP,Temperature,SUPINE,36.4,C,36.4,36.4,C,5,DAY 31 (TP2),TREATMENT,2021-02-17,32
D6470C00005,VS,D6470C00005-0030,15,SYSBP,Systolic Blood Pressure,SUPINE,142,mmHg,142,142,mmHg,6,FOLLOW-UP,FOLLOW-UP,2021-03-19,62
D6470C00005,VS,D6470C00005-0030,16,DIABP,Diastolic Blood Pressure,SUPINE,70,mmHg,70,70,mmHg,6,FOLLOW-UP,FOLLOW-UP,2021-03-19,62
D6470C00005,VS,D6470C00005-0030,17,PULSE,Pulse Rate,SUPINE,81,beats/min,81,81,beats/min,6,FOLLOW-UP,FOLLOW-UP,2021-03-19,62
D6470C00005,VS,D6470C00005-0030,18,TEMP,Temperature,SUPINE,37.4,C,37.4,37.4,C,6,FOLLOW-UP,FOLLOW-UP,2021-03-19,62
D6470C00005,VS,D6470C00005-0031,1,SYSBP,Systolic Blood Pressure,SUPINE,139,mmHg,139,139,mmHg,1,SCREENING,SCREENING,2020-12-05,-14
D6470C00005,VS,D6470C00005-0031,2,DIABP,Diastolic Blood Pressure,SUPINE,91,mmHg,91,91,mmHg,1,SCREENING,SCREENING,2020-12-05,-14
D6470C00005,VS,D6470C00005-0031,3,PULSE,Pulse Rate,SUPINE,71,beats/min,71,71,beats/min,1,SCREENING,SCREENING,2020-12-05,-14
D6470C00005,VS,D6470C00005-0031,4,TEMP,Temperature,SUPINE,36.7,C,36.7,36.7,C,1,SCREENING,SCREENING,2020-12-05,-14
D6470C00005,VS,D6470C00005-0031,5,HEIGHT,Height,STANDING,163.4,cm,163.4,163.4,cm,1,SCREENING,SCREENING,2020-12-05,-14
D6470C00005,VS,D6470C00005-0031,6,WEIGHT,Weight,STANDING,76.1,kg,76.1,76.1,kg,1,SCREENING,SCREENING,2020-12-05,-14
D6470C00005,VS,D6470C00005-0031,7,SYSBP,Systolic Blood Pressure,SUPINE,130,mmHg,130,130,mmHg,3,DAY 4 (TP1),TREATMENT,2020-12-23,5
D6470C00005,VS,D6470C00005-0031,8,DIABP,Diastolic Blood Pressure,SUPINE,87,mmHg,87,87,mmHg,3,DAY 4 (TP1),TREATMENT,2020-12-23,5
D6470C00005,VS,D6470C00005-0031,9,PULSE,Pulse Rate,SUPINE,59,beats/min,59,59,beats/min,3,DAY 4 (TP1),TREATMENT,2020-12-23,5
D6470C00005,VS,D6470C00005-0031,10,TEMP,Temperature,SUPINE,36.3,C,36.3,36.3,C,3,DAY 4 (TP1),TREATMENT,2020-12-23,5
D6470C00005,VS,D6470C00005-0031,11,SYSBP,Systolic Blood Pressure,SUPINE,124,mmHg,124,124,mmHg,5,DAY 31 (TP2),TREATMENT,2021-01-19,32
D6470C00005,VS,D6470C00005-0031,12,DIABP,Diastolic Blood Pressure,SUPINE,65,mmHg,65,65,mmHg,5,DAY 31 (TP2),TREATMENT,2021-01-19,32
D6470C00005,VS,D6470C00005-0031,13,PULSE,Pulse Rate,SUPINE,56,beats/min,56,56,beats/min,5,DAY 31 (TP2),TREATMENT,2021-01-19,32
D6470C00005,VS,D6470C00005-0031,14,TEMP,Temperature,SUPINE,36.3,C,36.3,36.3,C,5,DAY 31 (TP2),TREATMENT,2021-01-19,32
D6470C00005,VS,D6470C00005-0031,15,SYSBP,Systolic Blood Pressure,SUPINE,106,mmHg,106,106,mmHg,6,FOLLOW-UP,FOLLOW-UP,2021-02-18,62
D6470C00005,VS,D6470C00005-0031,16,DIABP,Diastolic Blood Pressure,SUPINE,66,mmHg,66,66,mmHg,6,FOLLOW-UP,FOLLOW-UP,2021-02-18,62
D6470C00005,VS,D6470C00005-0031,17,PULSE,Pulse Rate,SUPINE,84,beats/min,84,84,beats/min,6,FOLLOW-UP,FOLLOW-UP,2021-02-18,62
D6470C00005,VS,D6470C00005-0031,18,TEMP,Temperature,SUPINE,37.1,C,37.1,37.1,C,6,FOLLOW-UP,FOLLOW-UP,2021-02-18,62
D6470C00005,VS,D6470C00005-0032,1,SYSBP,Systolic Blood Pressure,SUPINE,119,mmHg,119,119,mmHg,1,SCREENING,SCREENING,2020-12-06,-14
D6470C00005,VS,D6470C00005-0032,2,DIABP,Diastolic Blood Pressure,SUPINE,78,mmHg,78,78,mmHg,1,SCREENING,SCREENING,2020-12-06,-14
D6470C00005,VS,D6470C00005-0032,3,PULSE,Pulse Rate,SUPINE,65,beats/min,65,65,beats/min,1,SCREENING,SCREENING,2020-12-06,-14
D6470C00005,VS,D6470C00005-0032,4,TEMP,Temperature,SUPINE,36.3,C,36.3,36.3,C,1,SCREENING,SCREENING,2020-12-06,-14
D6470C00005,VS,D6470C00005-0032,5,HEIGHT,Height,STANDING,164.9,cm,164.9,164.9,cm,1,SCREENING,SCREENING,2020-12-06,-14
D6470C00005,VS,D6470C00005-0032,6,WEIGHT,Weight,STANDING,103.5,kg,103.5,103.5,kg,1,SCREENING,SCREENING,2020-12-06,-14
D6470C00005,VS,D6470C00005-0032,7,SYSBP,Systolic Blood Pressure,SUPINE,144,mmHg,144,144,mmHg,3,DAY 4 (TP1),TREATMENT,2020-12-24,5
D6470C00005,VS,D6470C00005-0032,8,DIABP,Diastolic Blood Pressure,SUPINE,66,mmHg,66,66,mmHg,3,DAY 4 (TP1),TREATMENT,2020-12-24,5
D6470C00005,VS,D6470C00005-0032,9,PULSE,Pulse Rate,SUPINE,61,beats/min,61,61,beats/min,3,DAY 4 (TP1),TREATMENT,2020-12-24,5
D6470C00005,VS,D6470C00005-0032,10,TEMP,Temperature,SUPINE,37.1,C,37.1,37.1,C,3,DAY 4 (TP1),TREATMENT,2020-12-24,5
D6470C00005,VS,D6470C00005-0032,11,SYSBP,Systolic Blood Pressure,SUPINE,153,mmHg,153,153,mmHg,5,DAY 31 (TP2),TREATMENT,2021-01-20,32
D6470C00005,VS,D6470C00005-0032,12,DIABP,Diastolic Blood Pressure,SUPINE,83,mmHg,83,83,mmHg,5,DAY 31 (TP2),TREATMENT,2021-01-20,32
D6470C00005,VS,D6470C00005-0032,13,PULSE,Pulse Rate,SUPINE,91,beats/min,91,91,beats/min,5,DAY 31 (TP2),TREATMENT,2021-01-20,32
D6470C00005,VS,D6470C00005-0032,14,TEMP,Temperature,SUPINE,36.2,C,36.2,36.2,C,5,DAY 31 (TP2),TREATMENT,2021-01-20,32
D6470C00005,VS,D6470C00005-0032,15,SYSBP,Systolic Blood Pressure,SUPINE,124,mmHg,124,124,mmHg,6,FOLLOW-UP,FOLLOW-UP,2021-02-19,62
D6470C00005,VS,D6470C00005-0032,16,DIABP,Diastolic Blood Pressure,SUPINE,70,mmHg,70,70,mmHg,6,FOLLOW-UP,FOLLOW-UP,2021-02-19,62
D6470C00005,VS,D6470C00005-0032,17,PULSE,Pulse Rate,SUPINE,83,beats/min,83,83,beats/min,6,FOLLOW-UP,FOLLOW-UP,2021-02-19,62
D6470C00005,VS,D6470C00005-0032,18,TEMP,Temperature,SUPINE,36.7,C,36.7,36.7,C,6,FOLLOW-UP,FOLLOW-UP,2021-02-19,62
D6470C00005,VS,D6470C00005-0033,1,SYSBP,Systolic Blood Pressure,SUPINE,111,mmHg,111,111,mmHg,1,SCREENING,SCREENING,2020-11-26,-14
D6470C00005,VS,D6470C00005-0033,2,DIABP,Diastolic Blood Pressure,SUPINE,89,mmHg,89,89,mmHg,1,SCREENING,SCREENING,2020-11-26,-14
D6470C00005,VS,D6470C00005-0033,3,PULSE,Pulse Rate,SUPINE,82,beats/min,82,82,beats/min,1,SCREENING,SCREENING,2020-11-26,-14
D6470C00005,VS,D6470C00005-0033,4,TEMP,Temperature,SUPINE,36.3,C,36.3,36.3,C,1,SCREENING,SCREENING,2020-11-26,-14
D6470C00005,VS,D6470C00005-0033,5,HEIGHT,Height,STANDING,189.6,cm,189.6,189.6,cm,1,SCREENING,SCREENING,2020-11-26,-14
D6470C00005,VS,D6470C00005-0033,6,WEIGHT,Weight,STANDING,85.8,kg,85.8,85.8,kg,1,SCREENING,SCREENING,2020-11-26,-14
D6470C00005,VS,D6470C00005-0033,7,SYSBP,Systolic Blood Pressure,SUPINE,115,mmHg,115,115,mmHg,3,DAY 4 (TP1),TREATMENT,2020-12-14,5
D6470C00005,VS,D6470C00005-0033,8,DIABP,Diastolic Blood Pressure,SUPINE,90,mmHg,90,90,mmHg,3,DAY 4 (TP1),TREATMENT,2020-12-14,5
D6470C00005,VS,D6470C00005-0033,9,PULSE,Pulse Rate,SUPINE,87,beats/min,87,87,beats/min,3,DAY 4 (TP1),TREATMENT,2020-12-14,5
D6470C00005,VS,D6470C00005-0033,10,TEMP,Temperature,SUPINE,37.0,C,37.0,37.0,C,3,DAY 4 (TP1),TREATMENT,2020-12-14,5
D6470C00005,VS,D6470C00005-0033,11,SYSBP,Systolic Blood Pressure,SUPINE,127,mmHg,127,127,mmHg,5,DAY 31 (TP2),TREATMENT,2021-01-10,32
D6470C00005,VS,D6470C00005-0033,12,DIABP,Diastolic Blood Pressure,SUPINE,95,mmHg,95,95,mmHg,5,DAY 31 (TP2),TREATMENT,2021-01-10,32
D6470C00005,VS,D6470C00005-0033,13,PULSE,Pulse Rate,SUPINE,89,beats/min,89,89,beats/min,5,DAY 31 (TP2),TREATMENT,2021-01-10,32
D6470C00005,VS,D6470C00005-0033,14,TEMP,Temperature,SUPINE,37.4,C,37.4,37.4,C,5,DAY 31 (TP2),TREATMENT,2021-01-10,32
D6470C00005,VS,D6470C00005-0033,15,SYSBP,Systolic Blood Pressure,SUPINE,156,mmHg,156,156,mmHg,6,FOLLOW-UP,FOLLOW-UP,2021-02-09,62
D6470C00005,VS,D6470C00005-0033,16,DIABP,Diastolic Blood Pressure,SUPINE,75,mmHg,75,75,mmHg,6,FOLLOW-UP,FOLLOW-UP,2021-02-09,62
D6470C00005,VS,D6470C00005-0033,17,PULSE,Pulse Rate,SUPINE,86,beats/min,86,86,beats/min,6,FOLLOW-UP,FOLLOW-UP,2021-02-09,62
D6470C00005,VS,D6470C00005-0033,18,TEMP,Temperature,SUPINE,37.1,C,37.1,37.1,C,6,FOLLOW-UP,FOLLOW-UP,2021-02-09,62
D6470C00005,VS,D6470C00005-0034,1,SYSBP,Systolic Blood Pressure,SUPINE,144,mmHg,144,144,mmHg,1,SCREENING,SCREENING,2021-03-22,-14
D6470C00005,VS,D6470C00005-0034,2,DIABP,Diastolic Blood Pressure,SUPINE,63,mmHg,63,63,mmHg,1,SCREENING,SCREENING,2021-03-22,-14
D6470C00005,VS,D6470C00005-0034,3,PULSE,Pulse Rate,SUPINE,62,beats/min,62,62,beats/min,1,SCREENING,SCREENING,2021-03-22,-14
D6470C00005,VS,D6470C00005-0034,4,TEMP,Temperature,SUPINE,36.6,C,36.6,36.6,C,1,SCREENING,SCREENING,2021-03-22,-14
D6470C00005,VS,D6470C00005-0034,5,HEIGHT,Height,STANDING,177.9,cm,177.9,177.9,cm,1,SCREENING,SCREENING,2021-03-22,-14
D6470C00005,VS,D6470C00005-0034,6,WEIGHT,Weight,STANDING,105.5,kg,105.5,105.5,kg,1,SCREENING,SCREENING,2021-03-22,-14
D6470C00005,VS,D6470C00005-0034,7,SYSBP,Systolic Blood Pressure,SUPINE,115,mmHg,115,115,mmHg,3,DAY 4 (TP1),TREATMENT,2021-04-09,5
D6470C00005,VS,D6470C00005-0034,8,DIABP,Diastolic Blood Pressure,SUPINE,62,mmHg,62,62,mmHg,3,DAY 4 (TP1),TREATMENT,2021-04-09,5
D6470C00005,VS,D6470C00005-0034,9,PULSE,Pulse Rate,SUPINE,69,beats/min,69,69,beats/min,3,DAY 4 (TP1),TREATMENT,2021-04-09,5
D6470C00005,VS,D6470C00005-0034,10,TEMP,Temperature,SUPINE,36.3,C,36.3,36.3,C,3,DAY 4 (TP1),TREATMENT,2021-04-09,5
D6470C00005,VS,D6470C00005-0034,11,SYSBP,Systolic Blood Pressure,SUPINE,114,mmHg,114,114,mmHg,5,DAY 31 (TP2),TREATMENT,2021-05-06,32
D6470C00005,VS,D6470C00005-0034,12,DIABP,Diastolic Blood Pressure,SUPINE,75,mmHg,75,75,mmHg,5,DAY 31 (TP2),TREATMENT,2021-05-06,32
D6470C00005,VS,D6470C00005-0034,13,PULSE,Pulse Rate,SUPINE,59,beats/min,59,59,beats/min,5,DAY 31 (TP2),TREATMENT,2021-05-06,32
D6470C00005,VS,D6470C00005-0034,14,TEMP,Temperature,SUPINE,36.6,C,36.6,36.6,C,5,DAY 31 (TP2),TREATMENT,2021-05-06,32
D6470C00005,VS,D6470C00005-0034,15,SYSBP,Systolic Blood Pressure,SUPINE,126,mmHg,126,126,mmHg,6,FOLLOW-UP,FOLLOW-UP,2021-06-05,62
D6470C00005,VS,D6470C00005-0034,16,DIABP,Diastolic Blood Pressure,SUPINE,87,mmHg,87,87,mmHg,6,FOLLOW-UP,FOLLOW-UP,2021-06-05,62
D6470C00005,VS,D6470C00005-0034,17,PULSE,Pulse Rate,SUPINE,77,beats/min,77,77,beats/min,6,FOLLOW-UP,FOLLOW-UP,2021-06-05,62
D6470C00005,VS,D6470C00005-0034,18,TEMP,Temperature,SUPINE,36.3,C,36.3,36.3,C,6,FOLLOW-UP,FOLLOW-UP,2021-06-05,62
D6470C00005,VS,D6470C00005-0035,1,SYSBP,Systolic Blood Pressure,SUPINE,122,mmHg,122,122,mmHg,1,SCREENING,SCREENING,2021-01-09,-14
D6470C00005,VS,D6470C00005-0035,2,DIABP,Diastolic Blood Pressure,SUPINE,84,mmHg,84,84,mmHg,1,SCREENING,SCREENING,2021-01-09,-14
D6470C00005,VS,D6470C00005-0035,3,PULSE,Pulse Rate,SUPINE,78,beats/min,78,78,beats/min,1,SCREENING,SCREENING,2021-01-09,-14
D6470C00005,VS,D6470C00005-0035,4,TEMP,Temperature,SUPINE,37.2,C,37.2,37.2,C,1,SCREENING,SCREENING,2021-01-09,-14
D6470C00005,VS,D6470C00005-0035,5,HEIGHT,Height,STANDING,177.3,cm,177.3,177.3,cm,1,SCREENING,SCREENING,2021-01-09,-14
D6470C00005,VS,D6470C00005-0035,6,WEIGHT,Weight,STANDING,76.6,kg,76.6,76.6,kg,1,SCREENING,SCREENING,2021-01-09,-14
D6470C00005,VS,D6470C00005-0035,7,SYSBP,Systolic Blood Pressure,SUPINE,110,mmHg,110,110,mmHg,3,DAY 4 (TP1),TREATMENT,2021-01-27,5
D6470C00005,VS,D6470C00005-0035,8,DIABP,Diastolic Blood Pressure,SUPINE,64,mmHg,64,64,mmHg,3,DAY 4 (TP1),TREATMENT,2021-01-27,5
D6470C00005,VS,D6470C00005-0035,9,PULSE,Pulse Rate,SUPINE,69,beats/min,69,69,beats/min,3,DAY 4 (TP1),TREATMENT,2021-01-27,5
D6470C00005,VS,D6470C00005-0035,10,TEMP,Temperature,SUPINE,37.2,C,37.2,37.2,C,3,DAY 4 (TP1),TREATMENT,2021-01-27,5
D6470C00005,VS,D6470C00005-0035,11,SYSBP,Systolic Blood Pressure,SUPINE,139,mmHg,139,139,mmHg,5,DAY 31 (TP2),TREATMENT,2021-02-23,32
D6470C00005,VS,D6470C00005-0035,12,DIABP,Diastolic Blood Pressure,SUPINE,64,mmHg,64,64,mmHg,5,DAY 31 (TP2),TREATMENT,2021-02-23,32
D6470C00005,VS,D6470C00005-0035,13,PULSE,Pulse Rate,SUPINE,63,beats/min,63,63,beats/min,5,DAY 31 (TP2),TREATMENT,2021-02-23,32
D6470C00005,VS,D6470C00005-0035,14,TEMP,Temperature,SUPINE,36.3,C,36.3,36.3,C,5,DAY 31 (TP2),TREATMENT,2021-02-23,32
D6470C00005,VS,D6470C00005-0035,15,SYSBP,Systolic Blood Pressure,SUPINE,154,mmHg,154,154,mmHg,6,FOLLOW-UP,FOLLOW-UP,2021-03-25,62
D6470C00005,VS,D6470C00005-0035,16,DIABP,Diastolic Blood Pressure,SUPINE,91,mmHg,91,91,mmHg,6,FOLLOW-UP,FOLLOW-UP,2021-03-25,62
D6470C00005,VS,D6470C00005-0035,17,PULSE,Pulse Rate,SUPINE,87,beats/min,87,87,beats/min,6,FOLLOW-UP,FOLLOW-UP,2021-03-25,62
D6470C00005,VS,D6470C00005-0035,18,TEMP,Temperature,SUPINE,37.1,C,37.1,37.1,C,6,FOLLOW-UP,FOLLOW-UP,2021-03-25,62
D6470C00005,VS,D6470C00005-0036,1,SYSBP,Systolic Blood Pressure,SUPINE,127,mmHg,127,127,mmHg,1,SCREENING,SCREENING,2020-12-15,-14
D6470C00005,VS,D6470C00005-0036,2,DIABP,Diastolic Blood Pressure,SUPINE,83,mmHg,83,83,mmHg,1,SCREENING,SCREENING,2020-12-15,-14
D6470C00005,VS,D6470C00005-0036,3,PULSE,Pulse Rate,SUPINE,90,beats/min,90,90,beats/min,1,SCREENING,SCREENING,2020-12-15,-14
D6470C00005,VS,D6470C00005-0036,4,TEMP,Temperature,SUPINE,37.2,C,37.2,37.2,C,1,SCREENING,SCREENING,2020-12-15,-14
D6470C00005,VS,D6470C00005-0036,5,HEIGHT,Height,STANDING,185.1,cm,185.1,185.1,cm,1,SCREENING,SCREENING,2020-12-15,-14
D6470C00005,VS,D6470C00005-0036,6,WEIGHT,Weight,STANDING,91.1,kg,91.1,91.1,kg,1,SCREENING,SCREENING,2020-12-15,-14
D6470C00005,VS,D6470C00005-0036,7,SYSBP,Systolic Blood Pressure,SUPINE,142,mmHg,142,142,mmHg,3,DAY 4 (TP1),TREATMENT,2021-01-02,5
D6470C00005,VS,D6470C00005-0036,8,DIABP,Diastolic Blood Pressure,SUPINE,65,mmHg,65,65,mmHg,3,DAY 4 (TP1),TREATMENT,2021-01-02,5
D6470C00005,VS,D6470C00005-0036,9,PULSE,Pulse Rate,SUPINE,81,beats/min,81,81,beats/min,3,DAY 4 (TP1),TREATMENT,2021-01-02,5
D6470C00005,VS,D6470C00005-0036,10,TEMP,Temperature,SUPINE,37.4,C,37.4,37.4,C,3,DAY 4 (TP1),TREATMENT,2021-01-02,5
D6470C00005,VS,D6470C00005-0036,11,SYSBP,Systolic Blood Pressure,SUPINE,125,mmHg,125,125,mmHg,5,DAY 31 (TP2),TREATMENT,2021-01-29,32
D6470C00005,VS,D6470C00005-0036,12,DIABP,Diastolic Blood Pressure,SUPINE,73,mmHg,73,73,mmHg,5,DAY 31 (TP2),TREATMENT,2021-01-29,32
D6470C00005,VS,D6470C00005-0036,13,PULSE,Pulse Rate,SUPINE,59,beats/min,59,59,beats/min,5,DAY 31 (TP2),TREATMENT,2021-01-29,32
D6470C00005,VS,D6470C00005-0036,14,TEMP,Temperature,SUPINE,36.9,C,36.9,36.9,C,5,DAY 31 (TP2),TREATMENT,2021-01-29,32
D6470C00005,VS,D6470C00005-0036,15,SYSBP,Systolic Blood Pressure,SUPINE,127,mmHg,127,127,mmHg,6,FOLLOW-UP,FOLLOW-UP,2021-02-28,62
D6470C00005,VS,D6470C00005-0036,16,DIABP,Diastolic Blood Pressure,SUPINE,90,mmHg,90,90,mmHg,6,FOLLOW-UP,FOLLOW-UP,2021-02-28,62
D6470C00005,VS,D6470C00005-0036,17,PULSE,Pulse Rate,SUPINE,59,beats/min,59,59,beats/min,6,FOLLOW-UP,FOLLOW-UP,2021-02-28,62
D6470C00005,VS,D6470C00005-0036,18,TEMP,Temperature,SUPINE,37.3,C,37.3,37.3,C,6,FOLLOW-UP,FOLLOW-UP,2021-02-28,62
D6470C00005,VS,D6470C00005-0037,1,SYSBP,Systolic Blood Pressure,SUPINE,123,mmHg,123,123,mmHg,1,SCREENING,SCREENING,2020-12-14,-14
D6470C00005,VS,D6470C00005-0037,2,DIABP,Diastolic Blood Pressure,SUPINE,95,mmHg,95,95,mmHg,1,SCREENING,SCREENING,2020-12-14,-14
D6470C00005,VS,D6470C00005-0037,3,PULSE,Pulse Rate,SUPINE,81,beats/min,81,81,beats/min,1,SCREENING,SCREENING,2020-12-14,-14
D6470C00005,VS,D6470C00005-0037,4,TEMP,Temperature,SUPINE,36.7,C,36.7,36.7,C,1,SCREENING,SCREENING,2020-12-14,-14
D6470C00005,VS,D6470C00005-0037,5,HEIGHT,Height,STANDING,186.6,cm,186.6,186.6,cm,1,SCREENING,SCREENING,2020-12-14,-14
D6470C00005,VS,D6470C00005-0037,6,WEIGHT,Weight,STANDING,97.7,kg,97.7,97.7,kg,1,SCREENING,SCREENING,2020-12-14,-14
D6470C00005,VS,D6470C00005-0037,7,SYSBP,Systolic Blood Pressure,SUPINE,143,mmHg,143,143,mmHg,3,DAY 4 (TP1),TREATMENT,2021-01-01,5
D6470C00005,VS,D6470C00005-0037,8,DIABP,Diastolic Blood Pressure,SUPINE,96,mmHg,96,96,mmHg,3,DAY 4 (TP1),TREATMENT,2021-01-01,5
D6470C00005,VS,D6470C00005-0037,9,PULSE,Pulse Rate,SUPINE,69,beats/min,69,69,beats/min,3,DAY 4 (TP1),TREATMENT,2021-01-01,5
D6470C00005,VS,D6470C00005-0037,10,TEMP,Temperature,SUPINE,37.1,C,37.1,37.1,C,3,DAY 4 (TP1),TREATMENT,2021-01-01,5
D6470C00005,VS,D6470C00005-0037,11,SYSBP,Systolic Blood Pressure,SUPINE,156,mmHg,156,156,mmHg,5,DAY 31 (TP2),TREATMENT,2021-01-28,32
D6470C00005,VS,D6470C00005-0037,12,DIABP,Diastolic Blood Pressure,SUPINE,95,mmHg,95,95,mmHg,5,DAY 31 (TP2),TREATMENT,2021-01-28,32
D6470C00005,VS,D6470C00005-0037,13,PULSE,Pulse Rate,SUPINE,67,beats/min,67,67,beats/min,5,DAY 31 (TP2),TREATMENT,2021-01-28,32
D6470C00005,VS,D6470C00005-0037,14,TEMP,Temperature,SUPINE,36.7,C,36.7,36.7,C,5,DAY 31 (TP2),TREATMENT,2021-01-28,32
D6470C00005,VS,D6470C00005-0037,15,SYSBP,Systolic Blood Pressure,SUPINE,133,mmHg,133,133,mmHg,6,FOLLOW-UP,FOLLOW-UP,2021-02-27,62
D6470C00005,VS,D6470C00005-0037,16,DIABP,Diastolic Blood Pressure,SUPINE,79,mmHg,79,79,mmHg,6,FOLLOW-UP,FOLLOW-UP,2021-02-27,62
D6470C00005,VS,D6470C00005-0037,17,PULSE,Pulse Rate,SUPINE,70,beats/min,70,70,beats/min,6,FOLLOW-UP,FOLLOW-UP,2021-02-27,62
D6470C00005,VS,D6470C00005-0037,18,TEMP,Temperature,SUPINE,37.3,C,37.3,37.3,C,6,FOLLOW-UP,FOLLOW-UP,2021-02-27,62
D6470C00005,VS,D6470C00005-0038,1,SYSBP,Systolic Blood Pressure,SUPINE,124,mmHg,124,124,mmHg,1,SCREENING,SCREENING,2021-03-13,-14
D6470C00005,VS,D6470C00005-0038,2,DIABP,Diastolic Blood Pressure,SUPINE,88,mmHg,88,88,mmHg,1,SCREENING,SCREENING,2021-03-13,-14
D6470C00005,VS,D6470C00005-0038,3,PULSE,Pulse Rate,SUPINE,77,beats/min,77,77,beats/min,1,SCREENING,SCREENING,2021-03-13,-14
D6470C00005,VS,D6470C00005-0038,4,TEMP,Temperature,SUPINE,37.3,C,37.3,37.3,C,1,SCREENING,SCREENING,2021-03-13,-14
D6470C00005,VS,D6470C00005-0038,5,HEIGHT,Height,STANDING,172.6,cm,172.6,172.6,cm,1,SCREENING,SCREENING,2021-03-13,-14
D6470C00005,VS,D6470C00005-0038,6,WEIGHT,Weight,STANDING,90.5,kg,90.5,90.5,kg,1,SCREENING,SCREENING,2021-03-13,-14
D6470C00005,VS,D6470C00005-0038,7,SYSBP,Systolic Blood Pressure,SUPINE,121,mmHg,121,121,mmHg,3,DAY 4 (TP1),TREATMENT,2021-03-31,5
D6470C00005,VS,D6470C00005-0038,8,DIABP,Diastolic Blood Pressure,SUPINE,91,mmHg,91,91,mmHg,3,DAY 4 (TP1),TREATMENT,2021-03-31,5
D6470C00005,VS,D6470C00005-0038,9,PULSE,Pulse Rate,SUPINE,77,beats/min,77,77,beats/min,3,DAY 4 (TP1),TREATMENT,2021-03-31,5
D6470C00005,VS,D6470C00005-0038,10,TEMP,Temperature,SUPINE,37.3,C,37.3,37.3,C,3,DAY 4 (TP1),TREATMENT,2021-03-31,5
D6470C00005,VS,D6470C00005-0038,11,SYSBP,Systolic Blood Pressure,SUPINE,158,mmHg,158,158,mmHg,5,DAY 31 (TP2),TREATMENT,2021-04-27,32
D6470C00005,VS,D6470C00005-0038,12,DIABP,Diastolic Blood Pressure,SUPINE,68,mmHg,68,68,mmHg,5,DAY 31 (TP2),TREATMENT,2021-04-27,32
D6470C00005,VS,D6470C00005-0038,13,PULSE,Pulse Rate,SUPINE,82,beats/min,82,82,beats/min,5,DAY 31 (TP2),TREATMENT,2021-04-27,32
D6470C00005,VS,D6470C00005-0038,14,TEMP,Temperature,SUPINE,37.1,C,37.1,37.1,C,5,DAY 31 (TP2),TREATMENT,2021-04-27,32
D6470C00005,VS,D6470C00005-0038,15,SYSBP,Systolic Blood Pressure,SUPINE,144,mmHg,144,144,mmHg,6,FOLLOW-UP,FOLLOW-UP,2021-05-27,62
D6470C00005,VS,D6470C00005-0038,16,DIABP,Diastolic Blood Pressure,SUPINE,80,mmHg,80,80,mmHg,6,FOLLOW-UP,FOLLOW-UP,2021-05-27,62
D6470C00005,VS,D6470C00005-0038,17,PULSE,Pulse Rate,SUPINE,92,beats/min,92,92,beats/min,6,FOLLOW-UP,FOLLOW-UP,2021-05-27,62
D6470C00005,VS,D6470C00005-0038,18,TEMP,Temperature,SUPINE,37.0,C,37.0,37.0,C,6,FOLLOW-UP,FOLLOW-UP,2021-05-27,62
D6470C00005,VS,D6470C00005-0039,1,SYSBP,Systolic Blood Pressure,SUPINE,144,mmHg,144,144,mmHg,1,SCREENING,SCREENING,2020-11-29,-14
D6470C00005,VS,D6470C00005-0039,2,DIABP,Diastolic Blood Pressure,SUPINE,84,mmHg,84,84,mmHg,1,SCREENING,SCREENING,2020-11-29,-14
D6470C00005,VS,D6470C00005-0039,3,PULSE,Pulse Rate,SUPINE,85,beats/min,85,85,beats/min,1,SCREENING,SCREENING,2020-11-29,-14
D6470C00005,VS,D6470C00005-0039,4,TEMP,Temperature,SUPINE,36.4,C,36.4,36.4,C,1,SCREENING,SCREENING,2020-11-29,-14
D6470C00005,VS,D6470C00005-0039,5,HEIGHT,Height,STANDING,185.5,cm,185.5,185.5,cm,1,SCREENING,SCREENING,2020-11-29,-14
D6470C00005,VS,D6470C00005-0039,6,WEIGHT,Weight,STANDING,90.2,kg,90.2,90.2,kg,1,SCREENING,SCREENING,2020-11-29,-14
D6470C00005,VS,D6470C00005-0039,7,SYSBP,Systolic Blood Pressure,SUPINE,157,mmHg,157,157,mmHg,3,DAY 4 (TP1),TREATMENT,2020-12-17,5
D6470C00005,VS,D6470C00005-0039,8,DIABP,Diastolic Blood Pressure,SUPINE,74,mmHg,74,74,mmHg,3,DAY 4 (TP1),TREATMENT,2020-12-17,5
D6470C00005,VS,D6470C00005-0039,9,PULSE,Pulse Rate,SUPINE,92,beats/min,92,92,beats/min,3,DAY 4 (TP1),TREATMENT,2020-12-17,5
D6470C00005,VS,D6470C00005-0039,10,TEMP,Temperature,SUPINE,37.2,C,37.2,37.2,C,3,DAY 4 (TP1),TREATMENT,2020-12-17,5
D6470C00005,VS,D6470C00005-0039,11,SYSBP,Systolic Blood Pressure,SUPINE,108,mmHg,108,108,mmHg,5,DAY 31 (TP2),TREATMENT,2021-01-13,32
D6470C00005,VS,D6470C00005-0039,12,DIABP,Diastolic Blood Pressure,SUPINE,86,mmHg,86,86,mmHg,5,DAY 31 (TP2),TREATMENT,2021-01-13,32
D6470C00005,VS,D6470C00005-0039,13,PULSE,Pulse Rate,SUPINE,76,beats/min,76,76,beats/min,5,DAY 31 (TP2),TREATMENT,2021-01-13,32
D6470C00005,VS,D6470C00005-0039,14,TEMP,Temperature,SUPINE,37.2,C,37.2,37.2,C,5,DAY 31 (TP2),TREATMENT,2021-01-13,32
D6470C00005,VS,D6470C00005-0039,15,SYSBP,Systolic Blood Pressure,SUPINE,107,mmHg,107,107,mmHg,6,FOLLOW-UP,FOLLOW-UP,2021-02-12,62
D6470C00005,VS,D6470C00005-0039,16,DIABP,Diastolic Blood Pressure,SUPINE,84,mmHg,84,84,mmHg,6,FOLLOW-UP,FOLLOW-UP,2021-02-12,62
D6470C00005,VS,D6470C00005-0039,17,PULSE,Pulse Rate,SUPINE,91,beats/min,91,91,beats/min,6,FOLLOW-UP,FOLLOW-UP,2021-02-12,62
D6470C00005,VS,D6470C00005-0039,18,TEMP,Temperature,SUPINE,37.1,C,37.1,37.1,C,6,FOLLOW-UP,FOLLOW-UP,2021-02-12,62
D6470C00005,VS,D6470C00005-0040,1,SYSBP,Systolic Blood Pressure,SUPINE,145,mmHg,145,145,mmHg,1,SCREENING,SCREENING,2021-01-02,-14
D6470C00005,VS,D6470C00005-0040,2,DIABP,Diastolic Blood Pressure,SUPINE,91,mmHg,91,91,mmHg,1,SCREENING,SCREENING,2021-01-02,-14
D6470C00005,VS,D6470C00005-0040,3,PULSE,Pulse Rate,SUPINE,68,beats/min,68,68,beats/min,1,SCREENING,SCREENING,2021-01-02,-14
D6470C00005,VS,D6470C00005-0040,4,TEMP,Temperature,SUPINE,36.7,C,36.7,36.7,C,1,SCREENING,SCREENING,2021-01-02,-14
D6470C00005,VS,D6470C00005-0040,5,HEIGHT,Height,STANDING,177.6,cm,177.6,177.6,cm,1,SCREENING,SCREENING,2021-01-02,-14
D6470C00005,VS,D6470C00005-0040,6,WEIGHT,Weight,STANDING,79.0,kg,79.0,79.0,kg,1,SCREENING,SCREENING,2021-01-02,-14
D6470C00005,VS,D6470C00005-0040,7,SYSBP,Systolic Blood Pressure,SUPINE,106,mmHg,106,106,mmHg,3,DAY 4 (TP1),TREATMENT,2021-01-20,5
D6470C00005,VS,D6470C00005-0040,8,DIABP,Diastolic Blood Pressure,SUPINE,64,mmHg,64,64,mmHg,3,DAY 4 (TP1),TREATMENT,2021-01-20,5
D6470C00005,VS,D6470C00005-0040,9,PULSE,Pulse Rate,SUPINE,85,beats/min,85,85,beats/min,3,DAY 4 (TP1),TREATMENT,2021-01-20,5
D6470C00005,VS,D6470C00005-0040,10,TEMP,Temperature,SUPINE,36.3,C,36.3,36.3,C,3,DAY 4 (TP1),TREATMENT,2021-01-20,5
D6470C00005,VS,D6470C00005-0040,11,SYSBP,Systolic Blood Pressure,SUPINE,142,mmHg,142,142,mmHg,5,DAY 31 (TP2),TREATMENT,2021-02-16,32
D6470C00005,VS,D6470C00005-0040,12,DIABP,Diastolic Blood Pressure,SUPINE,82,mmHg,82,82,mmHg,5,DAY 31 (TP2),TREATMENT,2021-02-16,32
D6470C00005,VS,D6470C00005-0040,13,PULSE,Pulse Rate,SUPINE,61,beats/min,61,61,beats/min,5,DAY 31 (TP2),TREATMENT,2021-02-16,32
D6470C00005,VS,D6470C00005-0040,14,TEMP,Temperature,SUPINE,37.0,C,37.0,37.0,C,5,DAY 31 (TP2),TREATMENT,2021-02-16,32
D6470C00005,VS,D6470C00005-0040,15,SYSBP,Systolic Blood Pressure,SUPINE,121,mmHg,121,121,mmHg,6,FOLLOW-UP,FOLLOW-UP,2021-03-18,62
D6470C00005,VS,D6470C00005-0040,16,DIABP,Diastolic Blood Pressure,SUPINE,84,mmHg,84,84,mmHg,6,FOLLOW-UP,FOLLOW-UP,2021-03-18,62
D6470C00005,VS,D6470C00005-0040,17,PULSE,Pulse Rate,SUPINE,89,beats/min,89,89,beats/min,6,FOLLOW-UP,FOLLOW-UP,2021-03-18,62
D6470C00005,VS,D6470C00005-0040,18,TEMP,Temperature,SUPINE,36.7,C,36.7,36.7,C,6,FOLLOW-UP,FOLLOW-UP,2021-03-18,62
