[
  {
    "STUDYID": "CDISCPILOT01",
    "DOMAIN": "AE",
    "USUBJID": "01-701-1015",
    "AESEQ": 1,
    "AESPID": "E07",
    "AETERM": "APPLICATION SITE ERYTHEMA",
    "AELLT": "APPLICATION SITE REDNESS",
    "AELLTCD": null,
    "AEDECOD": "APPLICATION SITE ERYTHEMA",
    "AEPTCD": null,
    "AEHLT": "HLT_0617",
    "AEHLTCD": null,
    "AEHLGT": "HLGT_0152",
    "AEHLGTCD": null,
    "AEBODSYS": "GENERAL DISORDERS AND ADMINISTRATION SITE CONDITIONS",
    "AEBDSYCD": null,
    "AESOC": "GENERAL DISORDERS AND ADMINISTRATION SITE CONDITIONS",
    "AESOCCD": null,
    "AESEV": "MILD",
    "AESER": "N",
    "AEACN": "",
    "AEREL": "PROBABLE",
    "AEOUT": "NOT RECOVERED/NOT RESOLVED",
    "AESCAN": "N",
    "AESCONG": "N",
    "AESDISAB": "N",
    "AESDTH": "N",
    "AESHOSP": "N",
    "AESLIFE": "N",
    "AESOD": "N",
    "AEDTC": "2014-01-16",
    "AESTDTC": "2014-01-03",
    "AEENDTC": "",
    "AESTDY": 2,
    "AEENDY": null,
    "AETRTEM": "Y",
    "ASTDT": "2014-01-03",
    "AENDT": null,
    "SITEID": "701",
    "TRT01P": "Placebo",
    "TRT01A": "Placebo",
    "TRT01PN": 0,
    "TRT01AN": 0,
    "TRTSDT": "2014-01-02",
    "TRTEDT": "2014-07-02",
    "AGE": 63,
    "AGEGR1": "<65",
    "SEX": "F",
    "RACE": "WHITE",
    "SAFFL": "Y",
    "ITTFL": "Y",
    "EFFFL": "Y",
    "TRTP": "Placebo",
    "TRTA": "Placebo",
    "TRTPN": 0,
    "TRTAN": 0,
    "TRTEMFL": "Y",
    "ASTDY": 2,
    "AENDY": null,
    "AESEVN": 1,
    "CQ01NAM": "DERMATOLOGICAL EVENTS",
    "AOCCFL": "Y",
    "AOCCSFL": "Y",
    "AOCCPFL": "Y"
  },
  {
    "STUDYID": "CDISCPILOT01",
    "DOMAIN": "AE",
    "USUBJID": "01-701-1015",
    "AESEQ": 2,
    "AESPID": "E08",
    "AETERM": "APPLICATION SITE PRURITUS",
    "AELLT": "APPLICATION SITE ITCHING",
    "AELLTCD": null,
    "AEDECOD": "APPLICATION SITE PRURITUS",
    "AEPTCD": null,
    "AEHLT": "HLT_0317",
    "AEHLTCD": null,
    "AEHLGT": "HLGT_0338",
    "AEHLGTCD": null,
    "AEBODSYS": "GENERAL DISORDERS AND ADMINISTRATION SITE CONDITIONS",
    "AEBDSYCD": null,
    "AESOC": "GENERAL DISORDERS AND ADMINISTRATION SITE CONDITIONS",
    "AESOCCD": null,
    "AESEV": "MILD",
    "AESER": "N",
    "AEACN": "",
    "AEREL": "PROBABLE",
    "AEOUT": "NOT RECOVERED/NOT RESOLVED",
    "AESCAN": "N",
    "AESCONG": "N",
    "AESDISAB": "N",
    "AESDTH": "N",
    "AESHOSP": "N",
    "AESLIFE": "N",
    "AESOD": "N",
    "AEDTC": "2014-01-16",
    "AESTDTC": "2014-01-03",
    "AEENDTC": "",
    "AESTDY": 2,
    "AEENDY": null,
    "AETRTEM": "Y",
    "ASTDT": "2014-01-03",
    "AENDT": null,
    "SITEID": "701",
    "TRT01P": "Placebo",
    "TRT01A": "Placebo",
    "TRT01PN": 0,
    "TRT01AN": 0,
    "TRTSDT": "2014-01-02",
    "TRTEDT": "2014-07-02",
    "AGE": 63,
    "AGEGR1": "<65",
    "SEX": "F",
    "RACE": "WHITE",
    "SAFFL": "Y",
    "ITTFL": "Y",
    "EFFFL": "Y",
    "TRTP": "Placebo",
    "TRTA": "Placebo",
    "TRTPN": 0,
    "TRTAN": 0,
    "TRTEMFL": "Y",
    "ASTDY": 2,
    "AENDY": null,
    "AESEVN": 1,
    "CQ01NAM": "DERMATOLOGICAL EVENTS",
    "AOCCFL": null,
    "AOCCSFL": null,
    "AOCCPFL": "Y"
  },
  {
    "STUDYID": "CDISCPILOT01",
    "DOMAIN": "AE",
    "USUBJID": "01-701-1015",
    "AESEQ": 3,
    "AESPID": "E06",
    "AETERM": "DIARRHOEA",
    "AELLT": "DIARRHEA",
    "AELLTCD": null,
    "AEDECOD": "DIARRHOEA",
    "AEPTCD": null,
    "AEHLT": "HLT_0148",
    "AEHLTCD": null,
    "AEHLGT": "HLGT_0588",
    "AEHLGTCD": null,
    "AEBODSYS": "GASTROINTESTINAL DISORDERS",
    "AEBDSYCD": null,
    "AESOC": "GASTROINTESTINAL DISORDERS",
    "AESOCCD": null,
    "AESEV": "MILD",
    "AESER": "N",
    "AEACN": "",
    "AEREL": "REMOTE",
    "AEOUT": "RECOVERED/RESOLVED",
    "AESCAN": "N",
    "AESCONG": "N",
    "AESDISAB": "N",
    "AESDTH": "N",
    "AESHOSP": "N",
    "AESLIFE": "N",
    "AESOD": "N",
    "AEDTC": "2014-01-16",
    "AESTDTC": "2014-01-09",
    "AEENDTC": "2014-01-11",
    "AESTDY": 8,
    "AEENDY": 10,
    "AETRTEM": "Y",
    "ASTDT": "2014-01-09",
    "AENDT": "2014-01-11",
    "SITEID": "701",
    "TRT01P": "Placebo",
    "TRT01A": "Placebo",
    "TRT01PN": 0,
    "TRT01AN": 0,
    "TRTSDT": "2014-01-02",
    "TRTEDT": "2014-07-02",
    "AGE": 63,
    "AGEGR1": "<65",
    "SEX": "F",
    "RACE": "WHITE",
    "SAFFL": "Y",
    "ITTFL": "Y",
    "EFFFL": "Y",
    "TRTP": "Placebo",
    "TRTA": "Placebo",
    "TRTPN": 0,
    "TRTAN": 0,
    "TRTEMFL": "Y",
    "ASTDY": 8,
    "AENDY": 10,
    "AESEVN": 1,
    "CQ01NAM": null,
    "AOCCFL": null,
    "AOCCSFL": "Y",
    "AOCCPFL": "Y"
  },
  {
    "STUDYID": "CDISCPILOT01",
    "DOMAIN": "AE",
    "USUBJID": "01-701-1023",
    "AESEQ": 3,
    "AESPID": "E10",
    "AETERM": "ATRIOVENTRICULAR BLOCK SECOND DEGREE",
    "AELLT": "AV BLOCK SECOND DEGREE",
    "AELLTCD": null,
    "AEDECOD": "ATRIOVENTRICULAR BLOCK SECOND DEGREE",
    "AEPTCD": null,
    "AEHLT": "HLT_0415",
    "AEHLTCD": null,
    "AEHLGT": "HLGT_0086",
    "AEHLGTCD": null,
    "AEBODSYS": "CARDIAC DISORDERS",
    "AEBDSYCD": null,
    "AESOC": "CARDIAC DISORDERS",
    "AESOCCD": null,
    "AESEV": "MILD",
    "AESER": "N",
    "AEACN": "",
    "AEREL": "POSSIBLE",
    "AEOUT": "NOT RECOVERED/NOT RESOLVED",
    "AESCAN": "N",
    "AESCONG": "N",
    "AESDISAB": "N",
    "AESDTH": "N",
    "AESHOSP": "N",
    "AESLIFE": "N",
    "AESOD": "N",
    "AEDTC": "2012-08-27",
    "AESTDTC": "2012-08-26",
    "AEENDTC": "",
    "AESTDY": 22,
    "AEENDY": null,
    "AETRTEM": "Y",
    "ASTDT": "2012-08-26",
    "AENDT": null,
    "SITEID": "701",
    "TRT01P": "Placebo",
    "TRT01A": "Placebo",
    "TRT01PN": 0,
    "TRT01AN": 0,
    "TRTSDT": "2012-08-05",
    "TRTEDT": "2012-09-01",
    "AGE": 64,
    "AGEGR1": "<65",
    "SEX": "M",
    "RACE": "WHITE",
    "SAFFL": "Y",
    "ITTFL": "Y",
    "EFFFL": "Y",
    "TRTP": "Placebo",
    "TRTA": "Placebo",
    "TRTPN": 0,
    "TRTAN": 0,
    "TRTEMFL": "Y",
    "ASTDY": 22,
    "AENDY": null,
    "AESEVN": 1,
    "CQ01NAM": null,
    "AOCCFL": null,
    "AOCCSFL": "Y",
    "AOCCPFL": "Y"
  },
  {
    "STUDYID": "CDISCPILOT01",
    "DOMAIN": "AE",
    "USUBJID": "01-701-1023",
    "AESEQ": 1,
    "AESPID": "E08",
    "AETERM": "ERYTHEMA",
    "AELLT": "ERYTHEMA",
    "AELLTCD": null,
    "AEDECOD": "ERYTHEMA",
    "AEPTCD": null,
    "AEHLT": "HLT_0284",
    "AEHLTCD": null,
    "AEHLGT": "HLGT_0192",
    "AEHLGTCD": null,
    "AEBODSYS": "SKIN AND SUBCUTANEOUS TISSUE DISORDERS",
    "AEBDSYCD": null,
    "AESOC": "SKIN AND SUBCUTANEOUS TISSUE DISORDERS",
    "AESOCCD": null,
    "AESEV": "MILD",
    "AESER": "N",
    "AEACN": "",
    "AEREL": "POSSIBLE",
    "AEOUT": "NOT RECOVERED/NOT RESOLVED",
    "AESCAN": "N",
    "AESCONG": "N",
    "AESDISAB": "N",
    "AESDTH": "N",
    "AESHOSP": "N",
    "AESLIFE": "N",
    "AESOD": "N",
    "AEDTC": "2012-08-27",
    "AESTDTC": "2012-08-07",
    "AEENDTC": "2012-08-30",
    "AESTDY": 3,
    "AEENDY": 26,
    "AETRTEM": "Y",
    "ASTDT": "2012-08-07",
    "AENDT": "2012-08-30",
    "SITEID": "701",
    "TRT01P": "Placebo",
    "TRT01A": "Placebo",
    "TRT01PN": 0,
    "TRT01AN": 0,
    "TRTSDT": "2012-08-05",
    "TRTEDT": "2012-09-01",
    "AGE": 64,
    "AGEGR1": "<65",
    "SEX": "M",
    "RACE": "WHITE",
    "SAFFL": "Y",
    "ITTFL": "Y",
    "EFFFL": "Y",
    "TRTP": "Placebo",
    "TRTA": "Placebo",
    "TRTPN": 0,
    "TRTAN": 0,
    "TRTEMFL": "Y",
    "ASTDY": 3,
    "AENDY": 26,
    "AESEVN": 1,
    "CQ01NAM": "DERMATOLOGICAL EVENTS",
    "AOCCFL": "Y",
    "AOCCSFL": "Y",
    "AOCCPFL": "Y"
  },
  {
    "STUDYID": "CDISCPILOT01",
    "DOMAIN": "AE",
    "USUBJID": "01-701-1023",
    "AESEQ": 2,
    "AESPID": "E09",
    "AETERM": "ERYTHEMA",
    "AELLT": "LOCALIZED ERYTHEMA",
    "AELLTCD": null,
    "AEDECOD": "ERYTHEMA",
    "AEPTCD": null,
    "AEHLT": "HLT_0284",
    "AEHLTCD": null,
    "AEHLGT": "HLGT_0192",
    "AEHLGTCD": null,
    "AEBODSYS": "SKIN AND SUBCUTANEOUS TISSUE DISORDERS",
    "AEBDSYCD": null,
    "AESOC": "SKIN AND SUBCUTANEOUS TISSUE DISORDERS",
    "AESOCCD": null,
    "AESEV": "MODERATE",
    "AESER": "N",
    "AEACN": "",
    "AEREL": "PROBABLE",
    "AEOUT": "NOT RECOVERED/NOT RESOLVED",
    "AESCAN": "N",
    "AESCONG": "N",
    "AESDISAB": "N",
    "AESDTH": "N",
    "AESHOSP": "N",
    "AESLIFE": "N",
    "AESOD": "N",
    "AEDTC": "2012-08-27",
    "AESTDTC": "2012-08-07",
    "AEENDTC": "",
    "AESTDY": 3,
    "AEENDY": null,
    "AETRTEM": "Y",
    "ASTDT": "2012-08-07",
    "AENDT": null,
    "SITEID": "701",
    "TRT01P": "Placebo",
    "TRT01A": "Placebo",
    "TRT01PN": 0,
    "TRT01AN": 0,
    "TRTSDT": "2012-08-05",
    "TRTEDT": "2012-09-01",
    "AGE": 64,
    "AGEGR1": "<65",
    "SEX": "M",
    "RACE": "WHITE",
    "SAFFL": "Y",
    "ITTFL": "Y",
    "EFFFL": "Y",
    "TRTP": "Placebo",
    "TRTA": "Placebo",
    "TRTPN": 0,
    "TRTAN": 0,
    "TRTEMFL": "Y",
    "ASTDY": 3,
    "AENDY": null,
    "AESEVN": 2,
    "CQ01NAM": "DERMATOLOGICAL EVENTS",
    "AOCCFL": null,
    "AOCCSFL": null,
    "AOCCPFL": null
  },
  {
    "STUDYID": "CDISCPILOT01",
    "DOMAIN": "AE",
    "USUBJID": "01-701-1023",
    "AESEQ": 4,
    "AESPID": "E08",
    "AETERM": "ERYTHEMA",
    "AELLT": "ERYTHEMA",
    "AELLTCD": null,
    "AEDECOD": "ERYTHEMA",
    "AEPTCD": null,
    "AEHLT": "HLT_0284",
    "AEHLTCD": null,
    "AEHLGT": "HLGT_0192",
    "AEHLGTCD": null,
    "AEBODSYS": "SKIN AND SUBCUTANEOUS TISSUE DISORDERS",
    "AEBDSYCD": null,
    "AESOC": "SKIN AND SUBCUTANEOUS TISSUE DISORDERS",
    "AESOCCD": null,
    "AESEV": "MILD",
    "AESER": "N",
    "AEACN": "",
    "AEREL": "POSSIBLE",
    "AEOUT": "RECOVERED/RESOLVED",
    "AESCAN": "N",
    "AESCONG": "N",
    "AESDISAB": "N",
    "AESDTH": "N",
    "AESHOSP": "N",
    "AESLIFE": "N",
    "AESOD": "N",
    "AEDTC": "2012-09-02",
    "AESTDTC": "2012-08-07",
    "AEENDTC": "2012-08-30",
    "AESTDY": 3,
    "AEENDY": 26,
    "AETRTEM": "Y",
    "ASTDT": "2012-08-07",
    "AENDT": "2012-08-30",
    "SITEID": "701",
    "TRT01P": "Placebo",
    "TRT01A": "Placebo",
    "TRT01PN": 0,
    "TRT01AN": 0,
    "TRTSDT": "2012-08-05",
    "TRTEDT": "2012-09-01",
    "AGE": 64,
    "AGEGR1": "<65",
    "SEX": "M",
    "RACE": "WHITE",
    "SAFFL": "Y",
    "ITTFL": "Y",
    "EFFFL": "Y",
    "TRTP": "Placebo",
    "TRTA": "Placebo",
    "TRTPN": 0,
    "TRTAN": 0,
    "TRTEMFL": "Y",
    "ASTDY": 3,
    "AENDY": 26,
    "AESEVN": 1,
    "CQ01NAM": "DERMATOLOGICAL EVENTS",
    "AOCCFL": null,
    "AOCCSFL": null,
    "AOCCPFL": null
  },
  {
    "STUDYID": "CDISCPILOT01",
    "DOMAIN": "AE",
    "USUBJID": "01-701-1028",
    "AESEQ": 1,
    "AESPID": "E04",
    "AETERM": "APPLICATION SITE ERYTHEMA",
    "AELLT": "APPLICATION SITE ERYTHEMA",
    "AELLTCD": null,
    "AEDECOD": "APPLICATION SITE ERYTHEMA",
    "AEPTCD": null,
    "AEHLT": "HLT_0617",
    "AEHLTCD": null,
    "AEHLGT": "HLGT_0152",
    "AEHLGTCD": null,
    "AEBODSYS": "GENERAL DISORDERS AND ADMINISTRATION SITE CONDITIONS",
    "AEBDSYCD": null,
    "AESOC": "GENERAL DISORDERS AND ADMINISTRATION SITE CONDITIONS",
    "AESOCCD": null,
    "AESEV": "MILD",
    "AESER": "N",
    "AEACN": "",
    "AEREL": "POSSIBLE",
    "AEOUT": "NOT RECOVERED/NOT RESOLVED",
    "AESCAN": "N",
    "AESCONG": "N",
    "AESDISAB": "N",
    "AESDTH": "N",
    "AESHOSP": "N",
    "AESLIFE": "N",
    "AESOD": "N",
    "AEDTC": "2013-08-01",
    "AESTDTC": "2013-07-21",
    "AEENDTC": "",
    "AESTDY": 3,
    "AEENDY": null,
    "AETRTEM": "Y",
    "ASTDT": "2013-07-21",
    "AENDT": null,
    "SITEID": "701",
    "TRT01P": "Xanomeline High Dose",
    "TRT01A": "Xanomeline High Dose",
    "TRT01PN": 2,
    "TRT01AN": 2,
    "TRTSDT": "2013-07-19",
    "TRTEDT": "2014-01-14",
    "AGE": 71,
    "AGEGR1": "65-80",
    "SEX": "M",
    "RACE": "WHITE",
    "SAFFL": "Y",
    "ITTFL": "Y",
    "EFFFL": "Y",
    "TRTP": "Xanomeline High Dose",
    "TRTA": "Xanomeline High Dose",
    "TRTPN": 2,
    "TRTAN": 2,
    "TRTEMFL": "Y",
    "ASTDY": 3,
    "AENDY": null,
    "AESEVN": 1,
    "CQ01NAM": "DERMATOLOGICAL EVENTS",
    "AOCCFL": "Y",
    "AOCCSFL": "Y",
    "AOCCPFL": "Y"
  },
  {
    "STUDYID": "CDISCPILOT01",
    "DOMAIN": "AE",
    "USUBJID": "01-701-1028",
    "AESEQ": 2,
    "AESPID": "E05",
    "AETERM": "APPLICATION SITE PRURITUS",
    "AELLT": "APPLICATION SITE ITCHING",
    "AELLTCD": null,
    "AEDECOD": "APPLICATION SITE PRURITUS",
    "AEPTCD": null,
    "AEHLT": "HLT_0317",
    "AEHLTCD": null,
    "AEHLGT": "HLGT_0338",
    "AEHLGTCD": null,
    "AEBODSYS": "GENERAL DISORDERS AND ADMINISTRATION SITE CONDITIONS",
    "AEBDSYCD": null,
    "AESOC": "GENERAL DISORDERS AND ADMINISTRATION SITE CONDITIONS",
    "AESOCCD": null,
    "AESEV": "MILD",
    "AESER": "N",
    "AEACN": "",
    "AEREL": "PROBABLE",
    "AEOUT": "NOT RECOVERED/NOT RESOLVED",
    "AESCAN": "N",
    "AESCONG": "N",
    "AESDISAB": "N",
    "AESDTH": "N",
    "AESHOSP": "N",
    "AESLIFE": "N",
    "AESOD": "N",
    "AEDTC": "2013-08-14",
    "AESTDTC": "2013-08-08",
    "AEENDTC": "",
    "AESTDY": 21,
    "AEENDY": null,
    "AETRTEM": "Y",
    "ASTDT": "2013-08-08",
    "AENDT": null,
    "SITEID": "701",
    "TRT01P": "Xanomeline High Dose",
    "TRT01A": "Xanomeline High Dose",
    "TRT01PN": 2,
    "TRT01AN": 2,
    "TRTSDT": "2013-07-19",
    "TRTEDT": "2014-01-14",
    "AGE": 71,
    "AGEGR1": "65-80",
    "SEX": "M",
    "RACE": "WHITE",
    "SAFFL": "Y",
    "ITTFL": "Y",
    "EFFFL": "Y",
    "TRTP": "Xanomeline High Dose",
    "TRTA": "Xanomeline High Dose",
    "TRTPN": 2,
    "TRTAN": 2,
    "TRTEMFL": "Y",
    "ASTDY": 21,
    "AENDY": null,
    "AESEVN": 1,
    "CQ01NAM": "DERMATOLOGICAL EVENTS",
    "AOCCFL": null,
    "AOCCSFL": null,
    "AOCCPFL": "Y"
  },
  {
    "STUDYID": "CDISCPILOT01",
    "DOMAIN": "AE",
    "USUBJID": "01-701-1034",
    "AESEQ": 1,
    "AESPID": "E08",
    "AETERM": "APPLICATION SITE PRURITUS",
    "AELLT": "APPLICATION SITE ITCHING",
    "AELLTCD": null,
    "AEDECOD": "APPLICATION SITE PRURITUS",
    "AEPTCD": null,
    "AEHLT": "HLT_0317",
    "AEHLTCD": null,
    "AEHLGT": "HLGT_0338",
    "AEHLGTCD": null,
    "AEBODSYS": "GENERAL DISORDERS AND ADMINISTRATION SITE CONDITIONS",
    "AEBDSYCD": null,
    "AESOC": "GENERAL DISORDERS AND ADMINISTRATION SITE CONDITIONS",
    "AESOCCD": null,
    "AESEV": "MILD",
    "AESER": "N",
    "AEACN": "",
    "AEREL": "PROBABLE",
    "AEOUT": "NOT RECOVERED/NOT RESOLVED",
    "AESCAN": "N",
    "AESCONG": "N",
    "AESDISAB": "N",
    "AESDTH": "N",
    "AESHOSP": "N",
    "AESLIFE": "N",
    "AESOD": "N",
    "AEDTC": "2014-09-25",
    "AESTDTC": "2014-08-27",
    "AEENDTC": "",
    "AESTDY": 58,
    "AEENDY": null,
    "AETRTEM": "Y",
    "ASTDT": "2014-08-27",
    "AENDT": null,
    "SITEID": "701",
    "TRT01P": "Xanomeline High Dose",
    "TRT01A": "Xanomeline High Dose",
    "TRT01PN": 2,
    "TRT01AN": 2,
    "TRTSDT": "2014-07-01",
    "TRTEDT": "2014-12-30",
    "AGE": 77,
    "AGEGR1": "65-80",
    "SEX": "F",
    "RACE": "WHITE",
    "SAFFL": "Y",
    "ITTFL": "Y",
    "EFFFL": "Y",
    "TRTP": "Xanomeline High Dose",
    "TRTA": "Xanomeline High Dose",
    "TRTPN": 2,
    "TRTAN": 2,
    "TRTEMFL": "Y",
    "ASTDY": 58,
    "AENDY": null,
    "AESEVN": 1,
    "CQ01NAM": "DERMATOLOGICAL EVENTS",
    "AOCCFL": "Y",
    "AOCCSFL": "Y",
    "AOCCPFL": "Y"
  },
  {
    "STUDYID": "CDISCPILOT01",
    "DOMAIN": "AE",
    "USUBJID": "01-701-1034",
    "AESEQ": 2,
    "AESPID": "E07",
    "AETERM": "FATIGUE",
    "AELLT": "FATIGUE",
    "AELLTCD": null,
    "AEDECOD": "FATIGUE",
    "AEPTCD": null,
    "AEHLT": "HLT_0043",
    "AEHLTCD": null,
    "AEHLGT": "HLGT_0181",
    "AEHLGTCD": null,
    "AEBODSYS": "GENERAL DISORDERS AND ADMINISTRATION SITE CONDITIONS",
    "AEBDSYCD": null,
    "AESOC": "GENERAL DISORDERS AND ADMINISTRATION SITE CONDITIONS",
    "AESOCCD": null,
    "AESEV": "MILD",
    "AESER": "N",
    "AEACN": "",
    "AEREL": "POSSIBLE",
    "AEOUT": "NOT RECOVERED/NOT RESOLVED",
    "AESCAN": "N",
    "AESCONG": "N",
    "AESDISAB": "N",
    "AESDTH": "N",
    "AESHOSP": "N",
    "AESLIFE": "N",
    "AESOD": "N",
    "AEDTC": "2014-11-18",
    "AESTDTC": "2014-11-02",
    "AEENDTC": "",
    "AESTDY": 125,
    "AEENDY": null,
    "AETRTEM": "Y",
    "ASTDT": "2014-11-02",
    "AENDT": null,
    "SITEID": "701",
    "TRT01P": "Xanomeline High Dose",
    "TRT01A": "Xanomeline High Dose",
    "TRT01PN": 2,
    "TRT01AN": 2,
    "TRTSDT": "2014-07-01",
    "TRTEDT": "2014-12-30",
    "AGE": 77,
    "AGEGR1": "65-80",
    "SEX": "F",
    "RACE": "WHITE",
    "SAFFL": "Y",
    "ITTFL": "Y",
    "EFFFL": "Y",
    "TRTP": "Xanomeline High Dose",
    "TRTA": "Xanomeline High Dose",
    "TRTPN": 2,
    "TRTAN": 2,
    "TRTEMFL": "Y",
    "ASTDY": 125,
    "AENDY": null,
    "AESEVN": 1,
    "CQ01NAM": null,
    "AOCCFL": null,
    "AOCCSFL": null,
    "AOCCPFL": "Y"
  },
  {
    "STUDYID": "CDISCPILOT01",
    "DOMAIN": "AE",
    "USUBJID": "01-701-1047",
    "AESEQ": 4,
    "AESPID": "E09",
    "AETERM": "BUNDLE BRANCH BLOCK LEFT",
    "AELLT": "LEFT BUNDLE BRANCH BLOCK",
    "AELLTCD": null,
    "AEDECOD": "BUNDLE BRANCH BLOCK LEFT",
    "AEPTCD": null,
    "AEHLT": "HLT_0281",
    "AEHLTCD": null,
    "AEHLGT": "HLGT_0721",
    "AEHLGTCD": null,
    "AEBODSYS": "CARDIAC DISORDERS",
    "AEBDSYCD": null,
    "AESOC": "CARDIAC DISORDERS",
    "AESOCCD": null,
    "AESEV": "MILD",
    "AESER": "N",
    "AEACN": "",
    "AEREL": "NONE",
    "AEOUT": "NOT RECOVERED/NOT RESOLVED",
    "AESCAN": "N",
    "AESCONG": "N",
    "AESDISAB": "N",
    "AESDTH": "N",
    "AESHOSP": "N",
    "AESLIFE": "N",
    "AESOD": "N",
    "AEDTC": "2013-03-10",
    "AESTDTC": "2013-03-10",
    "AEENDTC": "",
    "AESTDY": 27,
    "AEENDY": null,
    "AETRTEM": "Y",
    "ASTDT": "2013-03-10",
    "AENDT": null,
    "SITEID": "701",
    "TRT01P": "Placebo",
    "TRT01A": "Placebo",
    "TRT01PN": 0,
    "TRT01AN": 0,
    "TRTSDT": "2013-02-12",
    "TRTEDT": "2013-03-09",
    "AGE": 85,
    "AGEGR1": ">80",
    "SEX": "F",
    "RACE": "WHITE",
    "SAFFL": "Y",
    "ITTFL": "Y",
    "EFFFL": "Y",
    "TRTP": "Placebo",
    "TRTA": "Placebo",
    "TRTPN": 0,
    "TRTAN": 0,
    "TRTEMFL": "Y",
    "ASTDY": 27,
    "AENDY": null,
    "AESEVN": 1,
    "CQ01NAM": null,
    "AOCCFL": null,
    "AOCCSFL": "Y",
    "AOCCPFL": "Y"
  },
  {
    "STUDYID": "CDISCPILOT01",
    "DOMAIN": "AE",
    "USUBJID": "01-701-1047",
    "AESEQ": 1,
    "AESPID": "E06",
    "AETERM": "HIATUS HERNIA",
    "AELLT": "HERNIA HIATAL",
    "AELLTCD": null,
    "AEDECOD": "HIATUS HERNIA",
    "AEPTCD": null,
    "AEHLT": "HLT_0159",
    "AEHLTCD": null,
    "AEHLGT": "HLGT_0109",
    "AEHLGTCD": null,
    "AEBODSYS": "GASTROINTESTINAL DISORDERS",
    "AEBDSYCD": null,
    "AESOC": "GASTROINTESTINAL DISORDERS",
    "AESOCCD": null,
    "AESEV": "MODERATE",
    "AESER": "N",
    "AEACN": "",
    "AEREL": "NONE",
    "AEOUT": "NOT RECOVERED/NOT RESOLVED",
    "AESCAN": "N",
    "AESCONG": "N",
    "AESDISAB": "N",
    "AESDTH": "N",
    "AESHOSP": "N",
    "AESLIFE": "N",
    "AESOD": "N",
    "AEDTC": "2013-02-12",
    "AESTDTC": "2013-02-12",
    "AEENDTC": "2013-02-12",
    "AESTDY": 1,
    "AEENDY": 1,
    "AETRTEM": "Y",
    "ASTDT": "2013-02-12",
    "AENDT": "2013-02-12",
    "SITEID": "701",
    "TRT01P": "Placebo",
    "TRT01A": "Placebo",
    "TRT01PN": 0,
    "TRT01AN": 0,
    "TRTSDT": "2013-02-12",
    "TRTEDT": "2013-03-09",
    "AGE": 85,
    "AGEGR1": ">80",
    "SEX": "F",
    "RACE": "WHITE",
    "SAFFL": "Y",
    "ITTFL": "Y",
    "EFFFL": "Y",
    "TRTP": "Placebo",
    "TRTA": "Placebo",
    "TRTPN": 0,
    "TRTAN": 0,
    "TRTEMFL": "Y",
    "ASTDY": 1,
    "AENDY": 1,
    "AESEVN": 2,
    "CQ01NAM": null,
    "AOCCFL": "Y",
    "AOCCSFL": "Y",
    "AOCCPFL": "Y"
  },
  {
    "STUDYID": "CDISCPILOT01",
    "DOMAIN": "AE",
    "USUBJID": "01-701-1047",
    "AESEQ": 2,
    "AESPID": "E06",
    "AETERM": "HIATUS HERNIA",
    "AELLT": "HERNIA HIATAL",
    "AELLTCD": null,
    "AEDECOD": "HIATUS HERNIA",
    "AEPTCD": null,
    "AEHLT": "HLT_0159",
    "AEHLTCD": null,
    "AEHLGT": "HLGT_0109",
    "AEHLGTCD": null,
    "AEBODSYS": "GASTROINTESTINAL DISORDERS",
    "AEBDSYCD": null,
    "AESOC": "GASTROINTESTINAL DISORDERS",
    "AESOCCD": null,
    "AESEV": "MODERATE",
    "AESER": "N",
    "AEACN": "",
    "AEREL": "NONE",
    "AEOUT": "RECOVERED/RESOLVED",
    "AESCAN": "N",
    "AESCONG": "N",
    "AESDISAB": "N",
    "AESDTH": "N",
    "AESHOSP": "N",
    "AESLIFE": "N",
    "AESOD": "N",
    "AEDTC": "2013-02-25",
    "AESTDTC": "2013-02-12",
    "AEENDTC": "2013-02-12",
    "AESTDY": 1,
    "AEENDY": 1,
    "AETRTEM": "Y",
    "ASTDT": "2013-02-12",
    "AENDT": "2013-02-12",
    "SITEID": "701",
    "TRT01P": "Placebo",
    "TRT01A": "Placebo",
    "TRT01PN": 0,
    "TRT01AN": 0,
    "TRTSDT": "2013-02-12",
    "TRTEDT": "2013-03-09",
    "AGE": 85,
    "AGEGR1": ">80",
    "SEX": "F",
    "RACE": "WHITE",
    "SAFFL": "Y",
    "ITTFL": "Y",
    "EFFFL": "Y",
    "TRTP": "Placebo",
    "TRTA": "Placebo",
    "TRTPN": 0,
    "TRTAN": 0,
    "TRTEMFL": "Y",
    "ASTDY": 1,
    "AENDY": 1,
    "AESEVN": 2,
    "CQ01NAM": null,
    "AOCCFL": null,
    "AOCCSFL": null,
    "AOCCPFL": null
  },
  {
    "STUDYID": "CDISCPILOT01",
    "DOMAIN": "AE",
    "USUBJID": "01-701-1047",
    "AESEQ": 3,
    "AESPID": "E08",
    "AETERM": "UPPER RESPIRATORY TRACT INFECTION",
    "AELLT": "UPPER RESPIRATORY INFECTION",
    "AELLTCD": null,
    "AEDECOD": "UPPER RESPIRATORY TRACT INFECTION",
    "AEPTCD": null,
    "AEHLT": "HLT_0520",
    "AEHLTCD": null,
    "AEHLGT": "HLGT_0489",
    "AEHLGTCD": null,
    "AEBODSYS": "INFECTIONS AND INFESTATIONS",
    "AEBDSYCD": null,
    "AESOC": "INFECTIONS AND INFESTATIONS",
    "AESOCCD": null,
    "AESEV": "MILD",
    "AESER": "N",
    "AEACN": "",
    "AEREL": "NONE",
    "AEOUT": "NOT RECOVERED/NOT RESOLVED",
    "AESCAN": "N",
    "AESCONG": "N",
    "AESDISAB": "N",
    "AESDTH": "N",
    "AESHOSP": "N",
    "AESLIFE": "N",
    "AESOD": "N",
    "AEDTC": "2013-03-10",
    "AESTDTC": "2013-03-06",
    "AEENDTC": "",
    "AESTDY": 23,
    "AEENDY": null,
    "AETRTEM": "Y",
    "ASTDT": "2013-03-06",
    "AENDT": null,
    "SITEID": "701",
    "TRT01P": "Placebo",
    "TRT01A": "Placebo",
    "TRT01PN": 0,
    "TRT01AN": 0,
    "TRTSDT": "2013-02-12",
    "TRTEDT": "2013-03-09",
    "AGE": 85,
    "AGEGR1": ">80",
    "SEX": "F",
    "RACE": "WHITE",
    "SAFFL": "Y",
    "ITTFL": "Y",
    "EFFFL": "Y",
    "TRTP": "Placebo",
    "TRTA": "Placebo",
    "TRTPN": 0,
    "TRTAN": 0,
    "TRTEMFL": "Y",
    "ASTDY": 23,
    "AENDY": null,
    "AESEVN": 1,
    "CQ01NAM": null,
    "AOCCFL": null,
    "AOCCSFL": "Y",
    "AOCCPFL": "Y"
  },
  {
    "STUDYID": "CDISCPILOT01",
    "DOMAIN": "AE",
    "USUBJID": "01-701-1097",
    "AESEQ": 4,
    "AESPID": "E06",
    "AETERM": "APPLICATION SITE PRURITUS",
    "AELLT": "APPLICATION SITE ITCHING",
    "AELLTCD": null,
    "AEDECOD": "APPLICATION SITE PRURITUS",
    "AEPTCD": null,
    "AEHLT": "HLT_0317",
    "AEHLTCD": null,
    "AEHLGT": "HLGT_0338",
    "AEHLGTCD": null,
    "AEBODSYS": "GENERAL DISORDERS AND ADMINISTRATION SITE CONDITIONS",
    "AEBDSYCD": null,
    "AESOC": "GENERAL DISORDERS AND ADMINISTRATION SITE CONDITIONS",
    "AESOCCD": null,
    "AESEV": "MILD",
    "AESER": "N",
    "AEACN": "",
    "AEREL": "POSSIBLE",
    "AEOUT": "NOT RECOVERED/NOT RESOLVED",
    "AESCAN": "N",
    "AESCONG": "N",
    "AESDISAB": "N",
    "AESDTH": "N",
    "AESHOSP": "N",
    "AESLIFE": "N",
    "AESOD": "N",
    "AEDTC": "2014-02-26",
    "AESTDTC": "2014-02-21",
    "AEENDTC": "",
    "AESTDY": 52,
    "AEENDY": null,
    "AETRTEM": "Y",
    "ASTDT": "2014-02-21",
    "AENDT": null,
    "SITEID": "701",
    "TRT01P": "Xanomeline Low Dose",
    "TRT01A": "Xanomeline Low Dose",
    "TRT01PN": 1,
    "TRT01AN": 1,
    "TRTSDT": "2014-01-01",
    "TRTEDT": "2014-07-09",
    "AGE": 68,
    "AGEGR1": "65-80",
    "SEX": "M",
    "RACE": "WHITE",
    "SAFFL": "Y",
    "ITTFL": "Y",
    "EFFFL": "Y",
    "TRTP": "Xanomeline Low Dose",
    "TRTA": "Xanomeline Low Dose",
    "TRTPN": 1,
    "TRTAN": 1,
    "TRTEMFL": "Y",
    "ASTDY": 52,
    "AENDY": null,
    "AESEVN": 1,
    "CQ01NAM": "DERMATOLOGICAL EVENTS",
    "AOCCFL": null,
    "AOCCSFL": null,
    "AOCCPFL": "Y"
  },
  {
    "STUDYID": "CDISCPILOT01",
    "DOMAIN": "AE",
    "USUBJID": "01-701-1097",
    "AESEQ": 10,
    "AESPID": "E06",
    "AETERM": "APPLICATION SITE PRURITUS",
    "AELLT": "APPLICATION SITE ITCHING",
    "AELLTCD": null,
    "AEDECOD": "APPLICATION SITE PRURITUS",
    "AEPTCD": null,
    "AEHLT": "HLT_0317",
    "AEHLTCD": null,
    "AEHLGT": "HLGT_0338",
    "AEHLGTCD": null,
    "AEBODSYS": "GENERAL DISORDERS AND ADMINISTRATION SITE CONDITIONS",
    "AEBDSYCD": null,
    "AESOC": "GENERAL DISORDERS AND ADMINISTRATION SITE CONDITIONS",
    "AESOCCD": null,
    "AESEV": "MODERATE",
    "AESER": "N",
    "AEACN": "",
    "AEREL": "POSSIBLE",
    "AEOUT": "NOT RECOVERED/NOT RESOLVED",
    "AESCAN": "N",
    "AESCONG": "N",
    "AESDISAB": "N",
    "AESDTH": "N",
    "AESHOSP": "N",
    "AESLIFE": "N",
    "AESOD": "N",
    "AEDTC": "2014-05-21",
    "AESTDTC": "2014-02-21",
    "AEENDTC": "",
    "AESTDY": 52,
    "AEENDY": null,
    "AETRTEM": "Y",
    "ASTDT": "2014-02-21",
    "AENDT": null,
    "SITEID": "701",
    "TRT01P": "Xanomeline Low Dose",
    "TRT01A": "Xanomeline Low Dose",
    "TRT01PN": 1,
    "TRT01AN": 1,
    "TRTSDT": "2014-01-01",
    "TRTEDT": "2014-07-09",
    "AGE": 68,
    "AGEGR1": "65-80",
    "SEX": "M",
    "RACE": "WHITE",
    "SAFFL": "Y",
    "ITTFL": "Y",
    "EFFFL": "Y",
    "TRTP": "Xanomeline Low Dose",
    "TRTA": "Xanomeline Low Dose",
    "TRTPN": 1,
    "TRTAN": 1,
    "TRTEMFL": "Y",
    "ASTDY": 52,
    "AENDY": null,
    "AESEVN": 2,
    "CQ01NAM": "DERMATOLOGICAL EVENTS",
    "AOCCFL": null,
    "AOCCSFL": null,
    "AOCCPFL": null
  },
  {
    "STUDYID": "CDISCPILOT01",
    "DOMAIN": "AE",
    "USUBJID": "01-701-1097",
    "AESEQ": 3,
    "AESPID": "E07",
    "AETERM": "APPLICATION SITE VESICLES",
    "AELLT": "APPLICATION SITE BLISTER",
    "AELLTCD": null,
    "AEDECOD": "APPLICATION SITE VESICLES",
    "AEPTCD": null,
    "AEHLT": "HLT_0180",
    "AEHLTCD": null,
    "AEHLGT": "HLGT_0576",
    "AEHLGTCD": null,
    "AEBODSYS": "GENERAL DISORDERS AND ADMINISTRATION SITE CONDITIONS",
    "AEBDSYCD": null,
    "AESOC": "GENERAL DISORDERS AND ADMINISTRATION SITE CONDITIONS",
    "AESOCCD": null,
    "AESEV": "MILD",
    "AESER": "N",
    "AEACN": "",
    "AEREL": "PROBABLE",
    "AEOUT": "RECOVERED/RESOLVED",
    "AESCAN": "N",
    "AESCONG": "N",
    "AESDISAB": "N",
    "AESDTH": "N",
    "AESHOSP": "N",
    "AESLIFE": "N",
    "AESOD": "N",
    "AEDTC": "2014-02-26",
    "AESTDTC": "2014-02-20",
    "AEENDTC": "2014-02-22",
    "AESTDY": 51,
    "AEENDY": 53,
    "AETRTEM": "Y",
    "ASTDT": "2014-02-20",
    "AENDT": "2014-02-22",
    "SITEID": "701",
    "TRT01P": "Xanomeline Low Dose",
    "TRT01A": "Xanomeline Low Dose",
    "TRT01PN": 1,
    "TRT01AN": 1,
    "TRTSDT": "2014-01-01",
    "TRTEDT": "2014-07-09",
    "AGE": 68,
    "AGEGR1": "65-80",
    "SEX": "M",
    "RACE": "WHITE",
    "SAFFL": "Y",
    "ITTFL": "Y",
    "EFFFL": "Y",
    "TRTP": "Xanomeline Low Dose",
    "TRTA": "Xanomeline Low Dose",
    "TRTPN": 1,
    "TRTAN": 1,
    "TRTEMFL": "Y",
    "ASTDY": 51,
    "AENDY": 53,
    "AESEVN": 1,
    "CQ01NAM": null,
    "AOCCFL": null,
    "AOCCSFL": "Y",
    "AOCCPFL": "Y"
  },
  {
    "STUDYID": "CDISCPILOT01",
    "DOMAIN": "AE",
    "USUBJID": "01-701-1097",
    "AESEQ": 1,
    "AESPID": "E04",
    "AETERM": "ERYTHEMA",
    "AELLT": "ERYTHEMA",
    "AELLTCD": null,
    "AEDECOD": "ERYTHEMA",
    "AEPTCD": null,
    "AEHLT": "HLT_0284",
    "AEHLTCD": null,
    "AEHLGT": "HLGT_0192",
    "AEHLGTCD": null,
    "AEBODSYS": "SKIN AND SUBCUTANEOUS TISSUE DISORDERS",
    "AEBDSYCD": null,
    "AESOC": "SKIN AND SUBCUTANEOUS TISSUE DISORDERS",
    "AESOCCD": null,
    "AESEV": "MILD",
    "AESER": "N",
    "AEACN": "",
    "AEREL": "POSSIBLE",
    "AEOUT": "NOT RECOVERED/NOT RESOLVED",
    "AESCAN": "N",
    "AESCONG": "N",
    "AESDISAB": "N",
    "AESDTH": "N",
    "AESHOSP": "N",
    "AESLIFE": "N",
    "AESOD": "N",
    "AEDTC": "2014-01-15",
    "AESTDTC": "2014-01-03",
    "AEENDTC": "",
    "AESTDY": 3,
    "AEENDY": null,
    "AETRTEM": "Y",
    "ASTDT": "2014-01-03",
    "AENDT": null,
    "SITEID": "701",
    "TRT01P": "Xanomeline Low Dose",
    "TRT01A": "Xanomeline Low Dose",
    "TRT01PN": 1,
    "TRT01AN": 1,
    "TRTSDT": "2014-01-01",
    "TRTEDT": "2014-07-09",
    "AGE": 68,
    "AGEGR1": "65-80",
    "SEX": "M",
    "RACE": "WHITE",
    "SAFFL": "Y",
    "ITTFL": "Y",
    "EFFFL": "Y",
    "TRTP": "Xanomeline Low Dose",
    "TRTA": "Xanomeline Low Dose",
    "TRTPN": 1,
    "TRTAN": 1,
    "TRTEMFL": "Y",
    "ASTDY": 3,
    "AENDY": null,
    "AESEVN": 1,
    "CQ01NAM": "DERMATOLOGICAL EVENTS",
    "AOCCFL": "Y",
    "AOCCSFL": "Y",
    "AOCCPFL": "Y"
  },
  {
    "STUDYID": "CDISCPILOT01",
    "DOMAIN": "AE",
    "USUBJID": "01-701-1097",
    "AESEQ": 9,
    "AESPID": "E11",
    "AETERM": "NASAL CONGESTION",
    "AELLT": "NASAL CONGESTION",
    "AELLTCD": null,
    "AEDECOD": "NASAL CONGESTION",
    "AEPTCD": null,
    "AEHLT": "HLT_0118",
    "AEHLTCD": null,
    "AEHLGT": "HLGT_0549",
    "AEHLGTCD": null,
    "AEBODSYS": "RESPIRATORY, THORACIC AND MEDIASTINAL DISORDERS",
    "AEBDSYCD": null,
    "AESOC": "RESPIRATORY, THORACIC AND MEDIASTINAL DISORDERS",
    "AESOCCD": null,
    "AESEV": "MILD",
    "AESER": "N",
    "AEACN": "",
    "AEREL": "NONE",
    "AEOUT": "RECOVERED/RESOLVED",
    "AESCAN": "N",
    "AESCONG": "N",
    "AESDISAB": "N",
    "AESDTH": "N",
    "AESHOSP": "N",
    "AESLIFE": "N",
    "AESOD": "N",
    "AEDTC": "2014-04-23",
    "AESTDTC": "2014-04-19",
    "AEENDTC": "2014-04-22",
    "AESTDY": 109,
    "AEENDY": 112,
    "AETRTEM": "Y",
    "ASTDT": "2014-04-19",
    "AENDT": "2014-04-22",
    "SITEID": "701",
    "TRT01P": "Xanomeline Low Dose",
    "TRT01A": "Xanomeline Low Dose",
    "TRT01PN": 1,
    "TRT01AN": 1,
    "TRTSDT": "2014-01-01",
    "TRTEDT": "2014-07-09",
    "AGE": 68,
    "AGEGR1": "65-80",
    "SEX": "M",
    "RACE": "WHITE",
    "SAFFL": "Y",
    "ITTFL": "Y",
    "EFFFL": "Y",
    "TRTP": "Xanomeline Low Dose",
    "TRTA": "Xanomeline Low Dose",
    "TRTPN": 1,
    "TRTAN": 1,
    "TRTEMFL": "Y",
    "ASTDY": 109,
    "AENDY": 112,
    "AESEVN": 1,
    "CQ01NAM": null,
    "AOCCFL": null,
    "AOCCSFL": null,
    "AOCCPFL": "Y"
  },
  {
    "STUDYID": "CDISCPILOT01",
    "DOMAIN": "AE",
    "USUBJID": "01-701-1097",
    "AESEQ": 8,
    "AESPID": "E10",
    "AETERM": "PHARYNGOLARYNGEAL PAIN",
    "AELLT": "SORE THROAT",
    "AELLTCD": null,
    "AEDECOD": "PHARYNGOLARYNGEAL PAIN",
    "AEPTCD": null,
    "AEHLT": "HLT_0130",
    "AEHLTCD": null,
    "AEHLGT": "HLGT_0402",
    "AEHLGTCD": null,
    "AEBODSYS": "RESPIRATORY, THORACIC AND MEDIASTINAL DISORDERS",
    "AEBDSYCD": null,
    "AESOC": "RESPIRATORY, THORACIC AND MEDIASTINAL DISORDERS",
    "AESOCCD": null,
    "AESEV": "MILD",
    "AESER": "N",
    "AEACN": "",
    "AEREL": "NONE",
    "AEOUT": "RECOVERED/RESOLVED",
    "AESCAN": "N",
    "AESCONG": "N",
    "AESDISAB": "N",
    "AESDTH": "N",
    "AESHOSP": "N",
    "AESLIFE": "N",
    "AESOD": "N",
    "AEDTC": "2014-04-23",
    "AESTDTC": "2014-04-19",
    "AEENDTC": "2014-04-22",
    "AESTDY": 109,
    "AEENDY": 112,
    "AETRTEM": "Y",
    "ASTDT": "2014-04-19",
    "AENDT": "2014-04-22",
    "SITEID": "701",
    "TRT01P": "Xanomeline Low Dose",
    "TRT01A": "Xanomeline Low Dose",
    "TRT01PN": 1,
    "TRT01AN": 1,
    "TRTSDT": "2014-01-01",
    "TRTEDT": "2014-07-09",
    "AGE": 68,
    "AGEGR1": "65-80",
    "SEX": "M",
    "RACE": "WHITE",
    "SAFFL": "Y",
    "ITTFL": "Y",
    "EFFFL": "Y",
    "TRTP": "Xanomeline Low Dose",
    "TRTA": "Xanomeline Low Dose",
    "TRTPN": 1,
    "TRTAN": 1,
    "TRTEMFL": "Y",
    "ASTDY": 109,
    "AENDY": 112,
    "AESEVN": 1,
    "CQ01NAM": null,
    "AOCCFL": null,
    "AOCCSFL": "Y",
    "AOCCPFL": "Y"
  },
  {
    "STUDYID": "CDISCPILOT01",
    "DOMAIN": "AE",
    "USUBJID": "01-701-1097",
    "AESEQ": 2,
    "AESPID": "E05",
    "AETERM": "PRURITUS GENERALISED",
    "AELLT": "GENERALIZED PRURITUS",
    "AELLTCD": null,
    "AEDECOD": "PRURITUS GENERALISED",
    "AEPTCD": null,
    "AEHLT": "HLT_0123",
    "AEHLTCD": null,
    "AEHLGT": "HLGT_0689",
    "AEHLGTCD": null,
    "AEBODSYS": "SKIN AND SUBCUTANEOUS TISSUE DISORDERS",
    "AEBDSYCD": null,
    "AESOC": "SKIN AND SUBCUTANEOUS TISSUE DISORDERS",
    "AESOCCD": null,
    "AESEV": "MODERATE",
    "AESER": "N",
    "AEACN": "",
    "AEREL": "POSSIBLE",
    "AEOUT": "RECOVERED/RESOLVED",
    "AESCAN": "N",
    "AESCONG": "N",
    "AESDISAB": "N",
    "AESDTH": "N",
    "AESHOSP": "N",
    "AESLIFE": "N",
    "AESOD": "N",
    "AEDTC": "2014-02-26",
    "AESTDTC": "2014-02-20",
    "AEENDTC": "2014-02-20",
    "AESTDY": 51,
    "AEENDY": 51,
    "AETRTEM": "Y",
    "ASTDT": "2014-02-20",
    "AENDT": "2014-02-20",
    "SITEID": "701",
    "TRT01P": "Xanomeline Low Dose",
    "TRT01A": "Xanomeline Low Dose",
    "TRT01PN": 1,
    "TRT01AN": 1,
    "TRTSDT": "2014-01-01",
    "TRTEDT": "2014-07-09",
    "AGE": 68,
    "AGEGR1": "65-80",
    "SEX": "M",
    "RACE": "WHITE",
    "SAFFL": "Y",
    "ITTFL": "Y",
    "EFFFL": "Y",
    "TRTP": "Xanomeline Low Dose",
    "TRTA": "Xanomeline Low Dose",
    "TRTPN": 1,
    "TRTAN": 1,
    "TRTEMFL": "Y",
    "ASTDY": 51,
    "AENDY": 51,
    "AESEVN": 2,
    "CQ01NAM": "DERMATOLOGICAL EVENTS",
    "AOCCFL": null,
    "AOCCSFL": null,
    "AOCCPFL": "Y"
  },
  {
    "STUDYID": "CDISCPILOT01",
    "DOMAIN": "AE",
    "USUBJID": "01-701-1097",
    "AESEQ": 5,
    "AESPID": "E08",
    "AETERM": "PRURITUS GENERALISED",
    "AELLT": "GENERALIZED PRURITUS",
    "AELLTCD": null,
    "AEDECOD": "PRURITUS GENERALISED",
    "AEPTCD": null,
    "AEHLT": "HLT_0123",
    "AEHLTCD": null,
    "AEHLGT": "HLGT_0689",
    "AEHLGTCD": null,
    "AEBODSYS": "SKIN AND SUBCUTANEOUS TISSUE DISORDERS",
    "AEBDSYCD": null,
    "AESOC": "SKIN AND SUBCUTANEOUS TISSUE DISORDERS",
    "AESOCCD": null,
    "AESEV": "MODERATE",
    "AESER": "N",
    "AEACN": "",
    "AEREL": "POSSIBLE",
    "AEOUT": "RECOVERED/RESOLVED",
    "AESCAN": "N",
    "AESCONG": "N",
    "AESDISAB": "N",
    "AESDTH": "N",
    "AESHOSP": "N",
    "AESLIFE": "N",
    "AESOD": "N",
    "AEDTC": "2014-03-26",
    "AESTDTC": "2014-03-21",
    "AEENDTC": "2014-03-21",
    "AESTDY": 80,
    "AEENDY": 80,
    "AETRTEM": "Y",
    "ASTDT": "2014-03-21",
    "AENDT": "2014-03-21",
    "SITEID": "701",
    "TRT01P": "Xanomeline Low Dose",
    "TRT01A": "Xanomeline Low Dose",
    "TRT01PN": 1,
    "TRT01AN": 1,
    "TRTSDT": "2014-01-01",
    "TRTEDT": "2014-07-09",
    "AGE": 68,
    "AGEGR1": "65-80",
    "SEX": "M",
    "RACE": "WHITE",
    "SAFFL": "Y",
    "ITTFL": "Y",
    "EFFFL": "Y",
    "TRTP": "Xanomeline Low Dose",
    "TRTA": "Xanomeline Low Dose",
    "TRTPN": 1,
    "TRTAN": 1,
    "TRTEMFL": "Y",
    "ASTDY": 80,
    "AENDY": 80,
    "AESEVN": 2,
    "CQ01NAM": "DERMATOLOGICAL EVENTS",
    "AOCCFL": null,
    "AOCCSFL": null,
    "AOCCPFL": null
  },
  {
    "STUDYID": "CDISCPILOT01",
    "DOMAIN": "AE",
    "USUBJID": "01-701-1097",
    "AESEQ": 6,
    "AESPID": "E12",
    "AETERM": "PRURITUS GENERALISED",
    "AELLT": "GENERALIZED PRURITUS",
    "AELLTCD": null,
    "AEDECOD": "PRURITUS GENERALISED",
    "AEPTCD": null,
    "AEHLT": "HLT_0123",
    "AEHLTCD": null,
    "AEHLGT": "HLGT_0689",
    "AEHLGTCD": null,
    "AEBODSYS": "SKIN AND SUBCUTANEOUS TISSUE DISORDERS",
    "AEBDSYCD": null,
    "AESOC": "SKIN AND SUBCUTANEOUS TISSUE DISORDERS",
    "AESOCCD": null,
    "AESEV": "MODERATE",
    "AESER": "N",
    "AEACN": "",
    "AEREL": "POSSIBLE",
    "AEOUT": "RECOVERED/RESOLVED",
    "AESCAN": "N",
    "AESCONG": "N",
    "AESDISAB": "N",
    "AESDTH": "N",
    "AESHOSP": "N",
    "AESLIFE": "N",
    "AESOD": "N",
    "AEDTC": "2014-04-23",
    "AESTDTC": "2014-03-31",
    "AEENDTC": "2014-03-31",
    "AESTDY": 90,
    "AEENDY": 90,
    "AETRTEM": "Y",
    "ASTDT": "2014-03-31",
    "AENDT": "2014-03-31",
    "SITEID": "701",
    "TRT01P": "Xanomeline Low Dose",
    "TRT01A": "Xanomeline Low Dose",
    "TRT01PN": 1,
    "TRT01AN": 1,
    "TRTSDT": "2014-01-01",
    "TRTEDT": "2014-07-09",
    "AGE": 68,
    "AGEGR1": "65-80",
    "SEX": "M",
    "RACE": "WHITE",
    "SAFFL": "Y",
    "ITTFL": "Y",
    "EFFFL": "Y",
    "TRTP": "Xanomeline Low Dose",
    "TRTA": "Xanomeline Low Dose",
    "TRTPN": 1,
    "TRTAN": 1,
    "TRTEMFL": "Y",
    "ASTDY": 90,
    "AENDY": 90,
    "AESEVN": 2,
    "CQ01NAM": "DERMATOLOGICAL EVENTS",
    "AOCCFL": null,
    "AOCCSFL": null,
    "AOCCPFL": null
  },
  {
    "STUDYID": "CDISCPILOT01",
    "DOMAIN": "AE",
    "USUBJID": "01-701-1097",
    "AESEQ": 7,
    "AESPID": "E09",
    "AETERM": "PRURITUS GENERALISED",
    "AELLT": "GENERALIZED PRURITUS",
    "AELLTCD": null,
    "AEDECOD": "PRURITUS GENERALISED",
    "AEPTCD": null,
    "AEHLT": "HLT_0123",
    "AEHLTCD": null,
    "AEHLGT": "HLGT_0689",
    "AEHLGTCD": null,
    "AEBODSYS": "SKIN AND SUBCUTANEOUS TISSUE DISORDERS",
    "AEBDSYCD": null,
    "AESOC": "SKIN AND SUBCUTANEOUS TISSUE DISORDERS",
    "AESOCCD": null,
    "AESEV": "MODERATE",
    "AESER": "N",
    "AEACN": "",
    "AEREL": "POSSIBLE",
    "AEOUT": "RECOVERED/RESOLVED",
    "AESCAN": "N",
    "AESCONG": "N",
    "AESDISAB": "N",
    "AESDTH": "N",
    "AESHOSP": "N",
    "AESLIFE": "N",
    "AESOD": "N",
    "AEDTC": "2014-04-23",
    "AESTDTC": "2014-04-19",
    "AEENDTC": "2014-04-20",
    "AESTDY": 109,
    "AEENDY": 110,
    "AETRTEM": "Y",
    "ASTDT": "2014-04-19",
    "AENDT": "2014-04-20",
    "SITEID": "701",
    "TRT01P": "Xanomeline Low Dose",
    "TRT01A": "Xanomeline Low Dose",
    "TRT01PN": 1,
    "TRT01AN": 1,
    "TRTSDT": "2014-01-01",
    "TRTEDT": "2014-07-09",
    "AGE": 68,
    "AGEGR1": "65-80",
    "SEX": "M",
    "RACE": "WHITE",
    "SAFFL": "Y",
    "ITTFL": "Y",
    "EFFFL": "Y",
    "TRTP": "Xanomeline Low Dose",
    "TRTA": "Xanomeline Low Dose",
    "TRTPN": 1,
    "TRTAN": 1,
    "TRTEMFL": "Y",
    "ASTDY": 109,
    "AENDY": 110,
    "AESEVN": 2,
    "CQ01NAM": "DERMATOLOGICAL EVENTS",
    "AOCCFL": null,
    "AOCCSFL": null,
    "AOCCPFL": null
  },
  {
    "STUDYID": "CDISCPILOT01",
    "DOMAIN": "AE",
    "USUBJID": "01-701-1111",
    "AESEQ": 7,
    "AESPID": "E16",
    "AETERM": "ARTHRALGIA",
    "AELLT": "GENERALIZED JOINT PAIN",
    "AELLTCD": null,
    "AEDECOD": "ARTHRALGIA",
    "AEPTCD": null,
    "AEHLT": "HLT_0375",
    "AEHLTCD": null,
    "AEHLGT": "HLGT_0610",
    "AEHLGTCD": null,
    "AEBODSYS": "MUSCULOSKELETAL AND CONNECTIVE TISSUE DISORDERS",
    "AEBDSYCD": null,
    "AESOC": "MUSCULOSKELETAL AND CONNECTIVE TISSUE DISORDERS",
    "AESOCCD": null,
    "AESEV": "MODERATE",
    "AESER": "N",
    "AEACN": "",
    "AEREL": "NONE",
    "AEOUT": "NOT RECOVERED/NOT RESOLVED",
    "AESCAN": "N",
    "AESCONG": "N",
    "AESDISAB": "N",
    "AESDTH": "N",
    "AESHOSP": "N",
    "AESLIFE": "N",
    "AESOD": "N",
    "AEDTC": "2012-09-17",
    "AESTDTC": "2012-09-13",
    "AEENDTC": "",
    "AESTDY": 7,
    "AEENDY": null,
    "AETRTEM": "Y",
    "ASTDT": "2012-09-13",
    "AENDT": null,
    "SITEID": "701",
    "TRT01P": "Xanomeline Low Dose",
    "TRT01A": "Xanomeline Low Dose",
    "TRT01PN": 1,
    "TRT01AN": 1,
    "TRTSDT": "2012-09-07",
    "TRTEDT": "2012-09-16",
    "AGE": 81,
    "AGEGR1": ">80",
    "SEX": "F",
    "RACE": "WHITE",
    "SAFFL": "Y",
    "ITTFL": "Y",
    "EFFFL": "Y",
    "TRTP": "Xanomeline Low Dose",
    "TRTA": "Xanomeline Low Dose",
    "TRTPN": 1,
    "TRTAN": 1,
    "TRTEMFL": "Y",
    "ASTDY": 7,
    "AENDY": null,
    "AESEVN": 2,
    "CQ01NAM": null,
    "AOCCFL": null,
    "AOCCSFL": "Y",
    "AOCCPFL": "Y"
  },
  {
    "STUDYID": "CDISCPILOT01",
    "DOMAIN": "AE",
    "USUBJID": "01-701-1111",
    "AESEQ": 8,
    "AESPID": "E17",
    "AETERM": "CELLULITIS",
    "AELLT": "CELLULITIS OF LEG",
    "AELLTCD": null,
    "AEDECOD": "CELLULITIS",
    "AEPTCD": null,
    "AEHLT": "HLT_0613",
    "AEHLTCD": null,
    "AEHLGT": "HLGT_0066",
    "AEHLGTCD": null,
    "AEBODSYS": "INFECTIONS AND INFESTATIONS",
    "AEBDSYCD": null,
    "AESOC": "INFECTIONS AND INFESTATIONS",
    "AESOCCD": null,
    "AESEV": "MODERATE",
    "AESER": "N",
    "AEACN": "",
    "AEREL": "NONE",
    "AEOUT": "NOT RECOVERED/NOT RESOLVED",
    "AESCAN": "N",
    "AESCONG": "N",
    "AESDISAB": "N",
    "AESDTH": "N",
    "AESHOSP": "N",
    "AESLIFE": "N",
    "AESOD": "N",
    "AEDTC": "2012-09-17",
    "AESTDTC": "2012-09-13",
    "AEENDTC": "",
    "AESTDY": 7,
    "AEENDY": null,
    "AETRTEM": "Y",
    "ASTDT": "2012-09-13",
    "AENDT": null,
    "SITEID": "701",
    "TRT01P": "Xanomeline Low Dose",
    "TRT01A": "Xanomeline Low Dose",
    "TRT01PN": 1,
    "TRT01AN": 1,
    "TRTSDT": "2012-09-07",
    "TRTEDT": "2012-09-16",
    "AGE": 81,
    "AGEGR1": ">80",
    "SEX": "F",
    "RACE": "WHITE",
    "SAFFL": "Y",
    "ITTFL": "Y",
    "EFFFL": "Y",
    "TRTP": "Xanomeline Low Dose",
    "TRTA": "Xanomeline Low Dose",
    "TRTPN": 1,
    "TRTAN": 1,
    "TRTEMFL": "Y",
    "ASTDY": 7,
    "AENDY": null,
    "AESEVN": 2,
    "CQ01NAM": null,
    "AOCCFL": null,
    "AOCCSFL": "Y",
    "AOCCPFL": "Y"
  },
  {
    "STUDYID": "CDISCPILOT01",
    "DOMAIN": "AE",
    "USUBJID": "01-701-1111",
    "AESEQ": 1,
    "AESPID": "E14",
    "AETERM": "ERYTHEMA",
    "AELLT": "ERYTHEMA",
    "AELLTCD": null,
    "AEDECOD": "ERYTHEMA",
    "AEPTCD": null,
    "AEHLT": "HLT_0284",
    "AEHLTCD": null,
    "AEHLGT": "HLGT_0192",
    "AEHLGTCD": null,
    "AEBODSYS": "SKIN AND SUBCUTANEOUS TISSUE DISORDERS",
    "AEBDSYCD": null,
    "AESOC": "SKIN AND SUBCUTANEOUS TISSUE DISORDERS",
    "AESOCCD": null,
    "AESEV": "MILD",
    "AESER": "N",
    "AEACN": "",
    "AEREL": "NONE",
    "AEOUT": "NOT RECOVERED/NOT RESOLVED",
    "AESCAN": "N",
    "AESCONG": "N",
    "AESDISAB": "N",
    "AESDTH": "N",
    "AESHOSP": "N",
    "AESLIFE": "N",
    "AESOD": "N",
    "AEDTC": "2012-09-05",
    "AESTDTC": "2012-09-02",
    "AEENDTC": "2012-09-07",
    "AESTDY": -5,
    "AEENDY": 1,
    "AETRTEM": "N",
    "ASTDT": "2012-09-02",
    "AENDT": "2012-09-07",
    "SITEID": "701",
    "TRT01P": "Xanomeline Low Dose",
    "TRT01A": "Xanomeline Low Dose",
    "TRT01PN": 1,
    "TRT01AN": 1,
    "TRTSDT": "2012-09-07",
    "TRTEDT": "2012-09-16",
    "AGE": 81,
    "AGEGR1": ">80",
    "SEX": "F",
    "RACE": "WHITE",
    "SAFFL": "Y",
    "ITTFL": "Y",
    "EFFFL": "Y",
    "TRTP": "Xanomeline Low Dose",
    "TRTA": "Xanomeline Low Dose",
    "TRTPN": 1,
    "TRTAN": 1,
    "TRTEMFL": null,
    "ASTDY": -5,
    "AENDY": 1,
    "AESEVN": 1,
    "CQ01NAM": "DERMATOLOGICAL EVENTS",
    "AOCCFL": null,
    "AOCCSFL": null,
    "AOCCPFL": null
  },
  {
    "STUDYID": "CDISCPILOT01",
    "DOMAIN": "AE",
    "USUBJID": "01-701-1111",
    "AESEQ": 4,
    "AESPID": "E14",
    "AETERM": "ERYTHEMA",
    "AELLT": "ERYTHEMA",
    "AELLTCD": null,
    "AEDECOD": "ERYTHEMA",
    "AEPTCD": null,
    "AEHLT": "HLT_0284",
    "AEHLTCD": null,
    "AEHLGT": "HLGT_0192",
    "AEHLGTCD": null,
    "AEBODSYS": "SKIN AND SUBCUTANEOUS TISSUE DISORDERS",
    "AEBDSYCD": null,
    "AESOC": "SKIN AND SUBCUTANEOUS TISSUE DISORDERS",
    "AESOCCD": null,
    "AESEV": "MILD",
    "AESER": "N",
    "AEACN": "",
    "AEREL": "NONE",
    "AEOUT": "RECOVERED/RESOLVED",
    "AESCAN": "N",
    "AESCONG": "N",
    "AESDISAB": "N",
    "AESDTH": "N",
    "AESHOSP": "N",
    "AESLIFE": "N",
    "AESOD": "N",
    "AEDTC": "2012-09-17",
    "AESTDTC": "2012-09-02",
    "AEENDTC": "2012-09-07",
    "AESTDY": -5,
    "AEENDY": 1,
    "AETRTEM": "N",
    "ASTDT": "2012-09-02",
    "AENDT": "2012-09-07",
    "SITEID": "701",
    "TRT01P": "Xanomeline Low Dose",
    "TRT01A": "Xanomeline Low Dose",
    "TRT01PN": 1,
    "TRT01AN": 1,
    "TRTSDT": "2012-09-07",
    "TRTEDT": "2012-09-16",
    "AGE": 81,
    "AGEGR1": ">80",
    "SEX": "F",
    "RACE": "WHITE",
    "SAFFL": "Y",
    "ITTFL": "Y",
    "EFFFL": "Y",
    "TRTP": "Xanomeline Low Dose",
    "TRTA": "Xanomeline Low Dose",
    "TRTPN": 1,
    "TRTAN": 1,
    "TRTEMFL": null,
    "ASTDY": -5,
    "AENDY": 1,
    "AESEVN": 1,
    "CQ01NAM": "DERMATOLOGICAL EVENTS",
    "AOCCFL": null,
    "AOCCSFL": null,
    "AOCCPFL": null
  },
  {
    "STUDYID": "CDISCPILOT01",
    "DOMAIN": "AE",
    "USUBJID": "01-701-1111",
    "AESEQ": 3,
    "AESPID": "E06",
    "AETERM": "LOCALISED INFECTION",
    "AELLT": "LOCALIZED INFECTION",
    "AELLTCD": null,
    "AEDECOD": "LOCALISED INFECTION",
    "AEPTCD": null,
    "AEHLT": "HLT_0435",
    "AEHLTCD": null,
    "AEHLGT": "HLGT_0557",
    "AEHLGTCD": null,
    "AEBODSYS": "INFECTIONS AND INFESTATIONS",
    "AEBDSYCD": null,
    "AESOC": "INFECTIONS AND INFESTATIONS",
    "AESOCCD": null,
    "AESEV": "MODERATE",
    "AESER": "N",
    "AEACN": "",
    "AEREL": "NONE",
    "AEOUT": "NOT RECOVERED/NOT RESOLVED",
    "AESCAN": "N",
    "AESCONG": "N",
    "AESDISAB": "N",
    "AESDTH": "N",
    "AESHOSP": "N",
    "AESLIFE": "N",
    "AESOD": "N",
    "AEDTC": "2012-09-17",
    "AESTDTC": "2012-07-08",
    "AEENDTC": "",
    "AESTDY": -61,
    "AEENDY": null,
    "AETRTEM": "N",
    "ASTDT": "2012-07-08",
    "AENDT": null,
    "SITEID": "701",
    "TRT01P": "Xanomeline Low Dose",
    "TRT01A": "Xanomeline Low Dose",
    "TRT01PN": 1,
    "TRT01AN": 1,
    "TRTSDT": "2012-09-07",
    "TRTEDT": "2012-09-16",
    "AGE": 81,
    "AGEGR1": ">80",
    "SEX": "F",
    "RACE": "WHITE",
    "SAFFL": "Y",
    "ITTFL": "Y",
    "EFFFL": "Y",
    "TRTP": "Xanomeline Low Dose",
    "TRTA": "Xanomeline Low Dose",
    "TRTPN": 1,
    "TRTAN": 1,
    "TRTEMFL": null,
    "ASTDY": -61,
    "AENDY": null,
    "AESEVN": 2,
    "CQ01NAM": null,
    "AOCCFL": null,
    "AOCCSFL": null,
    "AOCCPFL": null
  },
  {
    "STUDYID": "CDISCPILOT01",
    "DOMAIN": "AE",
    "USUBJID": "01-701-1111",
    "AESEQ": 6,
    "AESPID": "E18",
    "AETERM": "MICTURITION URGENCY",
    "AELLT": "URINARY URGENCY",
    "AELLTCD": null,
    "AEDECOD": "MICTURITION URGENCY",
    "AEPTCD": null,
    "AEHLT": "HLT_0294",
    "AEHLTCD": null,
    "AEHLGT": "HLGT_0483",
    "AEHLGTCD": null,
    "AEBODSYS": "RENAL AND URINARY DISORDERS",
    "AEBDSYCD": null,
    "AESOC": "RENAL AND URINARY DISORDERS",
    "AESOCCD": null,
    "AESEV": "MILD",
    "AESER": "N",
    "AEACN": "",
    "AEREL": "NONE",
    "AEOUT": "NOT RECOVERED/NOT RESOLVED",
    "AESCAN": "N",
    "AESCONG": "N",
    "AESDISAB": "N",
    "AESDTH": "N",
    "AESHOSP": "N",
    "AESLIFE": "N",
    "AESOD": "N",
    "AEDTC": "2012-09-17",
    "AESTDTC": "2012-09-07",
    "AEENDTC": "",
    "AESTDY": 1,
    "AEENDY": null,
    "AETRTEM": "Y",
    "ASTDT": "2012-09-07",
    "AENDT": null,
    "SITEID": "701",
    "TRT01P": "Xanomeline Low Dose",
    "TRT01A": "Xanomeline Low Dose",
    "TRT01PN": 1,
    "TRT01AN": 1,
    "TRTSDT": "2012-09-07",
    "TRTEDT": "2012-09-16",
    "AGE": 81,
    "AGEGR1": ">80",
    "SEX": "F",
    "RACE": "WHITE",
    "SAFFL": "Y",
    "ITTFL": "Y",
    "EFFFL": "Y",
    "TRTP": "Xanomeline Low Dose",
    "TRTA": "Xanomeline Low Dose",
    "TRTPN": 1,
    "TRTAN": 1,
    "TRTEMFL": "Y",
    "ASTDY": 1,
    "AENDY": null,
    "AESEVN": 1,
    "CQ01NAM": null,
    "AOCCFL": "Y",
    "AOCCSFL": "Y",
    "AOCCPFL": "Y"
  },
  {
    "STUDYID": "CDISCPILOT01",
    "DOMAIN": "AE",
    "USUBJID": "01-701-1111",
    "AESEQ": 2,
    "AESPID": "E15",
    "AETERM": "PRURITUS",
    "AELLT": "ITCHING",
    "AELLTCD": null,
    "AEDECOD": "PRURITUS",
    "AEPTCD": null,
    "AEHLT": "HLT_0778",
    "AEHLTCD": null,
    "AEHLGT": "HLGT_0695",
    "AEHLGTCD": null,
    "AEBODSYS": "SKIN AND SUBCUTANEOUS TISSUE DISORDERS",
    "AEBDSYCD": null,
    "AESOC": "SKIN AND SUBCUTANEOUS TISSUE DISORDERS",
    "AESOCCD": null,
    "AESEV": "MILD",
    "AESER": "N",
    "AEACN": "",
    "AEREL": "NONE",
    "AEOUT": "NOT RECOVERED/NOT RESOLVED",
    "AESCAN": "N",
    "AESCONG": "N",
    "AESDISAB": "N",
    "AESDTH": "N",
    "AESHOSP": "N",
    "AESLIFE": "N",
    "AESOD": "N",
    "AEDTC": "2012-09-05",
    "AESTDTC": "2012-09-02",
    "AEENDTC": "2012-09-07",
    "AESTDY": -5,
    "AEENDY": 1,
    "AETRTEM": "N",
    "ASTDT": "2012-09-02",
    "AENDT": "2012-09-07",
    "SITEID": "701",
    "TRT01P": "Xanomeline Low Dose",
    "TRT01A": "Xanomeline Low Dose",
    "TRT01PN": 1,
    "TRT01AN": 1,
    "TRTSDT": "2012-09-07",
    "TRTEDT": "2012-09-16",
    "AGE": 81,
    "AGEGR1": ">80",
    "SEX": "F",
    "RACE": "WHITE",
    "SAFFL": "Y",
    "ITTFL": "Y",
    "EFFFL": "Y",
    "TRTP": "Xanomeline Low Dose",
    "TRTA": "Xanomeline Low Dose",
    "TRTPN": 1,
    "TRTAN": 1,
    "TRTEMFL": null,
    "ASTDY": -5,
    "AENDY": 1,
    "AESEVN": 1,
    "CQ01NAM": "DERMATOLOGICAL EVENTS",
    "AOCCFL": null,
    "AOCCSFL": null,
    "AOCCPFL": null
  },
  {
    "STUDYID": "CDISCPILOT01",
    "DOMAIN": "AE",
    "USUBJID": "01-701-1111",
    "AESEQ": 5,
    "AESPID": "E15",
    "AETERM": "PRURITUS",
    "AELLT": "ITCHING",
    "AELLTCD": null,
    "AEDECOD": "PRURITUS",
    "AEPTCD": null,
    "AEHLT": "HLT_0778",
    "AEHLTCD": null,
    "AEHLGT": "HLGT_0695",
    "AEHLGTCD": null,
    "AEBODSYS": "SKIN AND SUBCUTANEOUS TISSUE DISORDERS",
    "AEBDSYCD": null,
    "AESOC": "SKIN AND SUBCUTANEOUS TISSUE DISORDERS",
    "AESOCCD": null,
    "AESEV": "MILD",
    "AESER": "N",
    "AEACN": "",
    "AEREL": "NONE",
    "AEOUT": "RECOVERED/RESOLVED",
    "AESCAN": "N",
    "AESCONG": "N",
    "AESDISAB": "N",
    "AESDTH": "N",
    "AESHOSP": "N",
    "AESLIFE": "N",
    "AESOD": "N",
    "AEDTC": "2012-09-17",
    "AESTDTC": "2012-09-02",
    "AEENDTC": "2012-09-07",
    "AESTDY": -5,
    "AEENDY": 1,
    "AETRTEM": "N",
    "ASTDT": "2012-09-02",
    "AENDT": "2012-09-07",
    "SITEID": "701",
    "TRT01P": "Xanomeline Low Dose",
    "TRT01A": "Xanomeline Low Dose",
    "TRT01PN": 1,
    "TRT01AN": 1,
    "TRTSDT": "2012-09-07",
    "TRTEDT": "2012-09-16",
    "AGE": 81,
    "AGEGR1": ">80",
    "SEX": "F",
    "RACE": "WHITE",
    "SAFFL": "Y",
    "ITTFL": "Y",
    "EFFFL": "Y",
    "TRTP": "Xanomeline Low Dose",
    "TRTA": "Xanomeline Low Dose",
    "TRTPN": 1,
    "TRTAN": 1,
    "TRTEMFL": null,
    "ASTDY": -5,
    "AENDY": 1,
    "AESEVN": 1,
    "CQ01NAM": "DERMATOLOGICAL EVENTS",
    "AOCCFL": null,
    "AOCCSFL": null,
    "AOCCPFL": null
  },
  {
    "STUDYID": "CDISCPILOT01",
    "DOMAIN": "AE",
    "USUBJID": "01-701-1115",
    "AESEQ": 9,
    "AESPID": "E14",
    "AETERM": "APPLICATION SITE DERMATITIS",
    "AELLT": "APPLICATION SITE RASH",
    "AELLTCD": null,
    "AEDECOD": "APPLICATION SITE DERMATITIS",
    "AEPTCD": null,
    "AEHLT": "HLT_0343",
    "AEHLTCD": null,
    "AEHLGT": "HLGT_0241",
    "AEHLGTCD": null,
    "AEBODSYS": "GENERAL DISORDERS AND ADMINISTRATION SITE CONDITIONS",
    "AEBDSYCD": null,
    "AESOC": "GENERAL DISORDERS AND ADMINISTRATION SITE CONDITIONS",
    "AESOCCD": null,
    "AESEV": "MODERATE",
    "AESER": "N",
    "AEACN": "",
    "AEREL": "PROBABLE",
    "AEOUT": "NOT RECOVERED/NOT RESOLVED",
    "AESCAN": "N",
    "AESCONG": "N",
    "AESDISAB": "N",
    "AESDTH": "N",
    "AESHOSP": "N",
    "AESLIFE": "N",
    "AESOD": "N",
    "AEDTC": "2013-01-23",
    "AESTDTC": "2013-01-19",
    "AEENDTC": "",
    "AESTDY": 51,
    "AEENDY": null,
    "AETRTEM": "Y",
    "ASTDT": "2013-01-19",
    "AENDT": null,
    "SITEID": "701",
    "TRT01P": "Xanomeline Low Dose",
    "TRT01A": "Xanomeline Low Dose",
    "TRT01PN": 1,
    "TRT01AN": 1,
    "TRTSDT": "2012-11-30",
    "TRTEDT": "2013-01-23",
    "AGE": 84,
    "AGEGR1": ">80",
    "SEX": "M",
    "RACE": "WHITE",
    "SAFFL": "Y",
    "ITTFL": "Y",
    "EFFFL": "Y",
    "TRTP": "Xanomeline Low Dose",
    "TRTA": "Xanomeline Low Dose",
    "TRTPN": 1,
    "TRTAN": 1,
    "TRTEMFL": "Y",
    "ASTDY": 51,
    "AENDY": null,
    "AESEVN": 2,
    "CQ01NAM": "DERMATOLOGICAL EVENTS",
    "AOCCFL": null,
    "AOCCSFL": null,
    "AOCCPFL": "Y"
  },
  {
    "STUDYID": "CDISCPILOT01",
    "DOMAIN": "AE",
    "USUBJID": "01-701-1115",
    "AESEQ": 1,
    "AESPID": "E09",
    "AETERM": "APPLICATION SITE ERYTHEMA",
    "AELLT": "APPLICATION SITE REDNESS",
    "AELLTCD": null,
    "AEDECOD": "APPLICATION SITE ERYTHEMA",
    "AEPTCD": null,
    "AEHLT": "HLT_0617",
    "AEHLTCD": null,
    "AEHLGT": "HLGT_0152",
    "AEHLGTCD": null,
    "AEBODSYS": "GENERAL DISORDERS AND ADMINISTRATION SITE CONDITIONS",
    "AEBDSYCD": null,
    "AESOC": "GENERAL DISORDERS AND ADMINISTRATION SITE CONDITIONS",
    "AESOCCD": null,
    "AESEV": "MILD",
    "AESER": "N",
    "AEACN": "",
    "AEREL": "PROBABLE",
    "AEOUT": "NOT RECOVERED/NOT RESOLVED",
    "AESCAN": "N",
    "AESCONG": "N",
    "AESDISAB": "N",
    "AESDTH": "N",
    "AESHOSP": "N",
    "AESLIFE": "N",
    "AESOD": "N",
    "AEDTC": "2012-12-13",
    "AESTDTC": "2012-12-02",
    "AEENDTC": "",
    "AESTDY": 3,
    "AEENDY": null,
    "AETRTEM": "Y",
    "ASTDT": "2012-12-02",
    "AENDT": null,
    "SITEID": "701",
    "TRT01P": "Xanomeline Low Dose",
    "TRT01A": "Xanomeline Low Dose",
    "TRT01PN": 1,
    "TRT01AN": 1,
    "TRTSDT": "2012-11-30",
    "TRTEDT": "2013-01-23",
    "AGE": 84,
    "AGEGR1": ">80",
    "SEX": "M",
    "RACE": "WHITE",
    "SAFFL": "Y",
    "ITTFL": "Y",
    "EFFFL": "Y",
    "TRTP": "Xanomeline Low Dose",
    "TRTA": "Xanomeline Low Dose",
    "TRTPN": 1,
    "TRTAN": 1,
    "TRTEMFL": "Y",
    "ASTDY": 3,
    "AENDY": null,
    "AESEVN": 1,
    "CQ01NAM": "DERMATOLOGICAL EVENTS",
    "AOCCFL": "Y",
    "AOCCSFL": "Y",
    "AOCCPFL": "Y"
  },
  {
    "STUDYID": "CDISCPILOT01",
    "DOMAIN": "AE",
    "USUBJID": "01-701-1115",
    "AESEQ": 5,
    "AESPID": "E09",
    "AETERM": "APPLICATION SITE ERYTHEMA",
    "AELLT": "APPLICATION SITE REDNESS",
    "AELLTCD": null,
    "AEDECOD": "APPLICATION SITE ERYTHEMA",
    "AEPTCD": null,
    "AEHLT": "HLT_0617",
    "AEHLTCD": null,
    "AEHLGT": "HLGT_0152",
    "AEHLGTCD": null,
    "AEBODSYS": "GENERAL DISORDERS AND ADMINISTRATION SITE CONDITIONS",
    "AEBDSYCD": null,
    "AESOC": "GENERAL DISORDERS AND ADMINISTRATION SITE CONDITIONS",
    "AESOCCD": null,
    "AESEV": "MODERATE",
    "AESER": "N",
    "AEACN": "",
    "AEREL": "PROBABLE",
    "AEOUT": "NOT RECOVERED/NOT RESOLVED",
    "AESCAN": "N",
    "AESCONG": "N",
    "AESDISAB": "N",
    "AESDTH": "N",
    "AESHOSP": "N",
    "AESLIFE": "N",
    "AESOD": "N",
    "AEDTC": "2013-01-23",
    "AESTDTC": "2012-12-02",
    "AEENDTC": "",
    "AESTDY": 3,
    "AEENDY": null,
    "AETRTEM": "Y",
    "ASTDT": "2012-12-02",
    "AENDT": null,
    "SITEID": "701",
    "TRT01P": "Xanomeline Low Dose",
    "TRT01A": "Xanomeline Low Dose",
    "TRT01PN": 1,
    "TRT01AN": 1,
    "TRTSDT": "2012-11-30",
    "TRTEDT": "2013-01-23",
    "AGE": 84,
    "AGEGR1": ">80",
    "SEX": "M",
    "RACE": "WHITE",
    "SAFFL": "Y",
    "ITTFL": "Y",
    "EFFFL": "Y",
    "TRTP": "Xanomeline Low Dose",
    "TRTA": "Xanomeline Low Dose",
    "TRTPN": 1,
    "TRTAN": 1,
    "TRTEMFL": "Y",
    "ASTDY": 3,
    "AENDY": null,
    "AESEVN": 2,
    "CQ01NAM": "DERMATOLOGICAL EVENTS",
    "AOCCFL": null,
    "AOCCSFL": null,
    "AOCCPFL": null
  },
  {
    "STUDYID": "CDISCPILOT01",
    "DOMAIN": "AE",
    "USUBJID": "01-701-1115",
    "AESEQ": 3,
    "AESPID": "E10",
    "AETERM": "APPLICATION SITE IRRITATION",
    "AELLT": "APPLICATION SITE BURNING",
    "AELLTCD": null,
    "AEDECOD": "APPLICATION SITE IRRITATION",
    "AEPTCD": null,
    "AEHLT": "HLT_0061",
    "AEHLTCD": null,
    "AEHLGT": "HLGT_0346",
    "AEHLGTCD": null,
    "AEBODSYS": "GENERAL DISORDERS AND ADMINISTRATION SITE CONDITIONS",
    "AEBDSYCD": null,
    "AESOC": "GENERAL DISORDERS AND ADMINISTRATION SITE CONDITIONS",
    "AESOCCD": null,
    "AESEV": "MILD",
    "AESER": "N",
    "AEACN": "",
    "AEREL": "POSSIBLE",
    "AEOUT": "NOT RECOVERED/NOT RESOLVED",
    "AESCAN": "N",
    "AESCONG": "N",
    "AESDISAB": "N",
    "AESDTH": "N",
    "AESHOSP": "N",
    "AESLIFE": "N",
    "AESOD": "N",
    "AEDTC": "2012-12-26",
    "AESTDTC": "2012-12-26",
    "AEENDTC": "2012-12-26",
    "AESTDY": 27,
    "AEENDY": 27,
    "AETRTEM": "Y",
    "ASTDT": "2012-12-26",
    "AENDT": "2012-12-26",
    "SITEID": "701",
    "TRT01P": "Xanomeline Low Dose",
    "TRT01A": "Xanomeline Low Dose",
    "TRT01PN": 1,
    "TRT01AN": 1,
    "TRTSDT": "2012-11-30",
    "TRTEDT": "2013-01-23",
    "AGE": 84,
    "AGEGR1": ">80",
    "SEX": "M",
    "RACE": "WHITE",
    "SAFFL": "Y",
    "ITTFL": "Y",
    "EFFFL": "Y",
    "TRTP": "Xanomeline Low Dose",
    "TRTA": "Xanomeline Low Dose",
    "TRTPN": 1,
    "TRTAN": 1,
    "TRTEMFL": "Y",
    "ASTDY": 27,
    "AENDY": 27,
    "AESEVN": 1,
    "CQ01NAM": null,
    "AOCCFL": null,
    "AOCCSFL": null,
    "AOCCPFL": "Y"
  },
  {
    "STUDYID": "CDISCPILOT01",
    "DOMAIN": "AE",
    "USUBJID": "01-701-1115",
    "AESEQ": 4,
    "AESPID": "E10",
    "AETERM": "APPLICATION SITE IRRITATION",
    "AELLT": "APPLICATION SITE BURNING",
    "AELLTCD": null,
    "AEDECOD": "APPLICATION SITE IRRITATION",
    "AEPTCD": null,
    "AEHLT": "HLT_0061",
    "AEHLTCD": null,
    "AEHLGT": "HLGT_0346",
    "AEHLGTCD": null,
    "AEBODSYS": "GENERAL DISORDERS AND ADMINISTRATION SITE CONDITIONS",
    "AEBDSYCD": null,
    "AESOC": "GENERAL DISORDERS AND ADMINISTRATION SITE CONDITIONS",
    "AESOCCD": null,
    "AESEV": "MILD",
    "AESER": "N",
    "AEACN": "",
    "AEREL": "POSSIBLE",
    "AEOUT": "RECOVERED/RESOLVED",
    "AESCAN": "N",
    "AESCONG": "N",
    "AESDISAB": "N",
    "AESDTH": "N",
    "AESHOSP": "N",
    "AESLIFE": "N",
    "AESOD": "N",
    "AEDTC": "2012-12-28",
    "AESTDTC": "2012-12-26",
    "AEENDTC": "2012-12-26",
    "AESTDY": 27,
    "AEENDY": 27,
    "AETRTEM": "Y",
    "ASTDT": "2012-12-26",
    "AENDT": "2012-12-26",
    "SITEID": "701",
    "TRT01P": "Xanomeline Low Dose",
    "TRT01A": "Xanomeline Low Dose",
    "TRT01PN": 1,
    "TRT01AN": 1,
    "TRTSDT": "2012-11-30",
    "TRTEDT": "2013-01-23",
    "AGE": 84,
    "AGEGR1": ">80",
    "SEX": "M",
    "RACE": "WHITE",
    "SAFFL": "Y",
    "ITTFL": "Y",
    "EFFFL": "Y",
    "TRTP": "Xanomeline Low Dose",
    "TRTA": "Xanomeline Low Dose",
    "TRTPN": 1,
    "TRTAN": 1,
    "TRTEMFL": "Y",
    "ASTDY": 27,
    "AENDY": 27,
    "AESEVN": 1,
    "CQ01NAM": null,
    "AOCCFL": null,
    "AOCCSFL": null,
    "AOCCPFL": null
  },
  {
    "STUDYID": "CDISCPILOT01",
    "DOMAIN": "AE",
    "USUBJID": "01-701-1115",
    "AESEQ": 8,
    "AESPID": "E12",
    "AETERM": "APPLICATION SITE IRRITATION",
    "AELLT": "APPLICATION SITE BURNING",
    "AELLTCD": null,
    "AEDECOD": "APPLICATION SITE IRRITATION",
    "AEPTCD": null,
    "AEHLT": "HLT_0061",
    "AEHLTCD": null,
    "AEHLGT": "HLGT_0346",
    "AEHLGTCD": null,
    "AEBODSYS": "GENERAL DISORDERS AND ADMINISTRATION SITE CONDITIONS",
    "AEBDSYCD": null,
    "AESOC": "GENERAL DISORDERS AND ADMINISTRATION SITE CONDITIONS",
    "AESOCCD": null,
    "AESEV": "MODERATE",
    "AESER": "N",
    "AEACN": "",
    "AEREL": "PROBABLE",
    "AEOUT": "NOT RECOVERED/NOT RESOLVED",
    "AESCAN": "N",
    "AESCONG": "N",
    "AESDISAB": "N",
    "AESDTH": "N",
    "AESHOSP": "N",
    "AESLIFE": "N",
    "AESOD": "N",
    "AEDTC": "2013-01-23",
    "AESTDTC": "2013-01-19",
    "AEENDTC": "",
    "AESTDY": 51,
    "AEENDY": null,
    "AETRTEM": "Y",
    "ASTDT": "2013-01-19",
    "AENDT": null,
    "SITEID": "701",
    "TRT01P": "Xanomeline Low Dose",
    "TRT01A": "Xanomeline Low Dose",
    "TRT01PN": 1,
    "TRT01AN": 1,
    "TRTSDT": "2012-11-30",
    "TRTEDT": "2013-01-23",
    "AGE": 84,
    "AGEGR1": ">80",
    "SEX": "M",
    "RACE": "WHITE",
    "SAFFL": "Y",
    "ITTFL": "Y",
    "EFFFL": "Y",
    "TRTP": "Xanomeline Low Dose",
    "TRTA": "Xanomeline Low Dose",
    "TRTPN": 1,
    "TRTAN": 1,
    "TRTEMFL": "Y",
    "ASTDY": 51,
    "AENDY": null,
    "AESEVN": 2,
    "CQ01NAM": null,
    "AOCCFL": null,
    "AOCCSFL": null,
    "AOCCPFL": null
  },
  {
    "STUDYID": "CDISCPILOT01",
    "DOMAIN": "AE",
    "USUBJID": "01-701-1115",
    "AESEQ": 2,
    "AESPID": "E11",
    "AETERM": "APPLICATION SITE PRURITUS",
    "AELLT": "APPLICATION SITE ITCHING",
    "AELLTCD": null,
    "AEDECOD": "APPLICATION SITE PRURITUS",
    "AEPTCD": null,
    "AEHLT": "HLT_0317",
    "AEHLTCD": null,
    "AEHLGT": "HLGT_0338",
    "AEHLGTCD": null,
    "AEBODSYS": "GENERAL DISORDERS AND ADMINISTRATION SITE CONDITIONS",
    "AEBDSYCD": null,
    "AESOC": "GENERAL DISORDERS AND ADMINISTRATION SITE CONDITIONS",
    "AESOCCD": null,
    "AESEV": "MILD",
    "AESER": "N",
    "AEACN": "",
    "AEREL": "PROBABLE",
    "AEOUT": "NOT RECOVERED/NOT RESOLVED",
    "AESCAN": "N",
    "AESCONG": "N",
    "AESDISAB": "N",
    "AESDTH": "N",
    "AESHOSP": "N",
    "AESLIFE": "N",
    "AESOD": "N",
    "AEDTC": "2012-12-13",
    "AESTDTC": "2012-12-02",
    "AEENDTC": "",
    "AESTDY": 3,
    "AEENDY": null,
    "AETRTEM": "Y",
    "ASTDT": "2012-12-02",
    "AENDT": null,
    "SITEID": "701",
    "TRT01P": "Xanomeline Low Dose",
    "TRT01A": "Xanomeline Low Dose",
    "TRT01PN": 1,
    "TRT01AN": 1,
    "TRTSDT": "2012-11-30",
    "TRTEDT": "2013-01-23",
    "AGE": 84,
    "AGEGR1": ">80",
    "SEX": "M",
    "RACE": "WHITE",
    "SAFFL": "Y",
    "ITTFL": "Y",
    "EFFFL": "Y",
    "TRTP": "Xanomeline Low Dose",
    "TRTA": "Xanomeline Low Dose",
    "TRTPN": 1,
    "TRTAN": 1,
    "TRTEMFL": "Y",
    "ASTDY": 3,
    "AENDY": null,
    "AESEVN": 1,
    "CQ01NAM": "DERMATOLOGICAL EVENTS",
    "AOCCFL": null,
    "AOCCSFL": null,
    "AOCCPFL": "Y"
  },
  {
    "STUDYID": "CDISCPILOT01",
    "DOMAIN": "AE",
    "USUBJID": "01-701-1115",
    "AESEQ": 6,
    "AESPID": "E11",
    "AETERM": "APPLICATION SITE PRURITUS",
    "AELLT": "APPLICATION SITE ITCHING",
    "AELLTCD": null,
    "AEDECOD": "APPLICATION SITE PRURITUS",
    "AEPTCD": null,
    "AEHLT": "HLT_0317",
    "AEHLTCD": null,
    "AEHLGT": "HLGT_0338",
    "AEHLGTCD": null,
    "AEBODSYS": "GENERAL DISORDERS AND ADMINISTRATION SITE CONDITIONS",
    "AEBDSYCD": null,
    "AESOC": "GENERAL DISORDERS AND ADMINISTRATION SITE CONDITIONS",
    "AESOCCD": null,
    "AESEV": "MODERATE",
    "AESER": "N",
    "AEACN": "",
    "AEREL": "PROBABLE",
    "AEOUT": "NOT RECOVERED/NOT RESOLVED",
    "AESCAN": "N",
    "AESCONG": "N",
    "AESDISAB": "N",
    "AESDTH": "N",
    "AESHOSP": "N",
    "AESLIFE": "N",
    "AESOD": "N",
    "AEDTC": "2013-01-23",
    "AESTDTC": "2012-12-02",
    "AEENDTC": "",
    "AESTDY": 3,
    "AEENDY": null,
    "AETRTEM": "Y",
    "ASTDT": "2012-12-02",
    "AENDT": null,
    "SITEID": "701",
    "TRT01P": "Xanomeline Low Dose",
    "TRT01A": "Xanomeline Low Dose",
    "TRT01PN": 1,
    "TRT01AN": 1,
    "TRTSDT": "2012-11-30",
    "TRTEDT": "2013-01-23",
    "AGE": 84,
    "AGEGR1": ">80",
    "SEX": "M",
    "RACE": "WHITE",
    "SAFFL": "Y",
    "ITTFL": "Y",
    "EFFFL": "Y",
    "TRTP": "Xanomeline Low Dose",
    "TRTA": "Xanomeline Low Dose",
    "TRTPN": 1,
    "TRTAN": 1,
    "TRTEMFL": "Y",
    "ASTDY": 3,
    "AENDY": null,
    "AESEVN": 2,
    "CQ01NAM": "DERMATOLOGICAL EVENTS",
    "AOCCFL": null,
    "AOCCSFL": null,
    "AOCCPFL": null
  },
  {
    "STUDYID": "CDISCPILOT01",
    "DOMAIN": "AE",
    "USUBJID": "01-701-1115",
    "AESEQ": 7,
    "AESPID": "E13",
    "AETERM": "FATIGUE",
    "AELLT": "FATIGUE",
    "AELLTCD": null,
    "AEDECOD": "FATIGUE",
    "AEPTCD": null,
    "AEHLT": "HLT_0043",
    "AEHLTCD": null,
    "AEHLGT": "HLGT_0181",
    "AEHLGTCD": null,
    "AEBODSYS": "GENERAL DISORDERS AND ADMINISTRATION SITE CONDITIONS",
    "AEBDSYCD": null,
    "AESOC": "GENERAL DISORDERS AND ADMINISTRATION SITE CONDITIONS",
    "AESOCCD": null,
    "AESEV": "MODERATE",
    "AESER": "N",
    "AEACN": "",
    "AEREL": "REMOTE",
    "AEOUT": "NOT RECOVERED/NOT RESOLVED",
    "AESCAN": "N",
    "AESCONG": "N",
    "AESDISAB": "N",
    "AESDTH": "N",
    "AESHOSP": "N",
    "AESLIFE": "N",
    "AESOD": "N",
    "AEDTC": "2013-01-23",
    "AESTDTC": "2013-01-14",
    "AEENDTC": "",
    "AESTDY": 46,
    "AEENDY": null,
    "AETRTEM": "Y",
    "ASTDT": "2013-01-14",
    "AENDT": null,
    "SITEID": "701",
    "TRT01P": "Xanomeline Low Dose",
    "TRT01A": "Xanomeline Low Dose",
    "TRT01PN": 1,
    "TRT01AN": 1,
    "TRTSDT": "2012-11-30",
    "TRTEDT": "2013-01-23",
    "AGE": 84,
    "AGEGR1": ">80",
    "SEX": "M",
    "RACE": "WHITE",
    "SAFFL": "Y",
    "ITTFL": "Y",
    "EFFFL": "Y",
    "TRTP": "Xanomeline Low Dose",
    "TRTA": "Xanomeline Low Dose",
    "TRTPN": 1,
    "TRTAN": 1,
    "TRTEMFL": "Y",
    "ASTDY": 46,
    "AENDY": null,
    "AESEVN": 2,
    "CQ01NAM": null,
    "AOCCFL": null,
    "AOCCSFL": null,
    "AOCCPFL": "Y"
  },
  {
    "STUDYID": "CDISCPILOT01",
    "DOMAIN": "AE",
    "USUBJID": "01-701-1118",
    "AESEQ": 1,
    "AESPID": "E06",
    "AETERM": "COUGH",
    "AELLT": "COUGH",
    "AELLTCD": null,
    "AEDECOD": "COUGH",
    "AEPTCD": null,
    "AEHLT": "HLT_0701",
    "AEHLTCD": null,
    "AEHLGT": "HLGT_0280",
    "AEHLGTCD": null,
    "AEBODSYS": "RESPIRATORY, THORACIC AND MEDIASTINAL DISORDERS",
    "AEBDSYCD": null,
    "AESOC": "RESPIRATORY, THORACIC AND MEDIASTINAL DISORDERS",
    "AESOCCD": null,
    "AESEV": "MILD",
    "AESER": "N",
    "AEACN": "",
    "AEREL": "NONE",
    "AEOUT": "NOT RECOVERED/NOT RESOLVED",
    "AESCAN": "N",
    "AESCONG": "N",
    "AESDISAB": "N",
    "AESDTH": "N",
    "AESHOSP": "N",
    "AESLIFE": "N",
    "AESOD": "N",
    "AEDTC": "2014-03-10",
    "AESTDTC": "2003",
    "AEENDTC": "",
    "AESTDY": null,
    "AEENDY": null,
    "AETRTEM": "N",
    "ASTDT": null,
    "AENDT": null,
    "SITEID": "701",
    "TRT01P": "Placebo",
    "TRT01A": "Placebo",
    "TRT01PN": 0,
    "TRT01AN": 0,
    "TRTSDT": "2014-03-12",
    "TRTEDT": "2014-09-09",
    "AGE": 52,
    "AGEGR1": "<65",
    "SEX": "M",
    "RACE": "WHITE",
    "SAFFL": "Y",
    "ITTFL": "Y",
    "EFFFL": "Y",
    "TRTP": "Placebo",
    "TRTA": "Placebo",
    "TRTPN": 0,
    "TRTAN": 0,
    "TRTEMFL": null,
    "ASTDY": null,
    "AENDY": null,
    "AESEVN": 1,
    "CQ01NAM": null,
    "AOCCFL": null,
    "AOCCSFL": null,
    "AOCCPFL": null
  },
  {
    "STUDYID": "CDISCPILOT01",
    "DOMAIN": "AE",
    "USUBJID": "01-701-1130",
    "AESEQ": 5,
    "AESPID": "E09",
    "AETERM": "EYE ALLERGY",
    "AELLT": "EYE ALLERGY",
    "AELLTCD": null,
    "AEDECOD": "EYE ALLERGY",
    "AEPTCD": null,
    "AEHLT": "HLT_0256",
    "AEHLTCD": null,
    "AEHLGT": "HLGT_0071",
    "AEHLGTCD": null,
    "AEBODSYS": "EYE DISORDERS",
    "AEBDSYCD": null,
    "AESOC": "EYE DISORDERS",
    "AESOCCD": null,
    "AESEV": "MILD",
    "AESER": "N",
    "AEACN": "",
    "AEREL": "NONE",
    "AEOUT": "RECOVERED/RESOLVED",
    "AESCAN": "N",
    "AESCONG": "N",
    "AESDISAB": "N",
    "AESDTH": "N",
    "AESHOSP": "N",
    "AESLIFE": "N",
    "AESOD": "N",
    "AEDTC": "2014-05-16",
    "AESTDTC": "2014-05-09",
    "AEENDTC": "2014-05-09",
    "AESTDY": 84,
    "AEENDY": 84,
    "AETRTEM": "Y",
    "ASTDT": "2014-05-09",
    "AENDT": "2014-05-09",
    "SITEID": "701",
    "TRT01P": "Placebo",
    "TRT01A": "Placebo",
    "TRT01PN": 0,
    "TRT01AN": 0,
    "TRTSDT": "2014-02-15",
    "TRTEDT": "2014-08-16",
    "AGE": 84,
    "AGEGR1": ">80",
    "SEX": "M",
    "RACE": "WHITE",
    "SAFFL": "Y",
    "ITTFL": "Y",
    "EFFFL": "Y",
    "TRTP": "Placebo",
    "TRTA": "Placebo",
    "TRTPN": 0,
    "TRTAN": 0,
    "TRTEMFL": "Y",
    "ASTDY": 84,
    "AENDY": 84,
    "AESEVN": 1,
    "CQ01NAM": null,
    "AOCCFL": null,
    "AOCCSFL": null,
    "AOCCPFL": "Y"
  },
  {
    "STUDYID": "CDISCPILOT01",
    "DOMAIN": "AE",
    "USUBJID": "01-701-1130",
    "AESEQ": 6,
    "AESPID": "E10",
    "AETERM": "EYE PRURITUS",
    "AELLT": "EYE ITCHING",
    "AELLTCD": null,
    "AEDECOD": "EYE PRURITUS",
    "AEPTCD": null,
    "AEHLT": "HLT_0523",
    "AEHLTCD": null,
    "AEHLGT": "HLGT_0240",
    "AEHLGTCD": null,
    "AEBODSYS": "EYE DISORDERS",
    "AEBDSYCD": null,
    "AESOC": "EYE DISORDERS",
    "AESOCCD": null,
    "AESEV": "MILD",
    "AESER": "N",
    "AEACN": "",
    "AEREL": "REMOTE",
    "AEOUT": "NOT RECOVERED/NOT RESOLVED",
    "AESCAN": "N",
    "AESCONG": "N",
    "AESDISAB": "N",
    "AESDTH": "N",
    "AESHOSP": "N",
    "AESLIFE": "N",
    "AESOD": "N",
    "AEDTC": "2014-06-07",
    "AESTDTC": "2014-05-22",
    "AEENDTC": "",
    "AESTDY": 97,
    "AEENDY": null,
    "AETRTEM": "Y",
    "ASTDT": "2014-05-22",
    "AENDT": null,
    "SITEID": "701",
    "TRT01P": "Placebo",
    "TRT01A": "Placebo",
    "TRT01PN": 0,
    "TRT01AN": 0,
    "TRTSDT": "2014-02-15",
    "TRTEDT": "2014-08-16",
    "AGE": 84,
    "AGEGR1": ">80",
    "SEX": "M",
    "RACE": "WHITE",
    "SAFFL": "Y",
    "ITTFL": "Y",
    "EFFFL": "Y",
    "TRTP": "Placebo",
    "TRTA": "Placebo",
    "TRTPN": 0,
    "TRTAN": 0,
    "TRTEMFL": "Y",
    "ASTDY": 97,
    "AENDY": null,
    "AESEVN": 1,
    "CQ01NAM": "DERMATOLOGICAL EVENTS",
    "AOCCFL": null,
    "AOCCSFL": null,
    "AOCCPFL": "Y"
  },
  {
    "STUDYID": "CDISCPILOT01",
    "DOMAIN": "AE",
    "USUBJID": "01-701-1130",
    "AESEQ": 4,
    "AESPID": "E08",
    "AETERM": "EYE SWELLING",
    "AELLT": "EYES SWOLLEN",
    "AELLTCD": null,
    "AEDECOD": "EYE SWELLING",
    "AEPTCD": null,
    "AEHLT": "HLT_0008",
    "AEHLTCD": null,
    "AEHLGT": "HLGT_0466",
    "AEHLGTCD": null,
    "AEBODSYS": "EYE DISORDERS",
    "AEBDSYCD": null,
    "AESOC": "EYE DISORDERS",
    "AESOCCD": null,
    "AESEV": "MILD",
    "AESER": "N",
    "AEACN": "",
    "AEREL": "NONE",
    "AEOUT": "RECOVERED/RESOLVED",
    "AESCAN": "N",
    "AESCONG": "N",
    "AESDISAB": "N",
    "AESDTH": "N",
    "AESHOSP": "N",
    "AESLIFE": "N",
    "AESOD": "N",
    "AEDTC": "2014-05-16",
    "AESTDTC": "2014-05-09",
    "AEENDTC": "2014-05-09",
    "AESTDY": 84,
    "AEENDY": 84,
    "AETRTEM": "Y",
    "ASTDT": "2014-05-09",
    "AENDT": "2014-05-09",
    "SITEID": "701",
    "TRT01P": "Placebo",
    "TRT01A": "Placebo",
    "TRT01PN": 0,
    "TRT01AN": 0,
    "TRTSDT": "2014-02-15",
    "TRTEDT": "2014-08-16",
    "AGE": 84,
    "AGEGR1": ">80",
    "SEX": "M",
    "RACE": "WHITE",
    "SAFFL": "Y",
    "ITTFL": "Y",
    "EFFFL": "Y",
    "TRTP": "Placebo",
    "TRTA": "Placebo",
    "TRTPN": 0,
    "TRTAN": 0,
    "TRTEMFL": "Y",
    "ASTDY": 84,
    "AENDY": 84,
    "AESEVN": 1,
    "CQ01NAM": null,
    "AOCCFL": null,
    "AOCCSFL": "Y",
    "AOCCPFL": "Y"
  },
  {
    "STUDYID": "CDISCPILOT01",
    "DOMAIN": "AE",
    "USUBJID": "01-701-1130",
    "AESEQ": 8,
    "AESPID": "E12",
    "AETERM": "NASAL CONGESTION",
    "AELLT": "NASAL CONGESTION",
    "AELLTCD": null,
    "AEDECOD": "NASAL CONGESTION",
    "AEPTCD": null,
    "AEHLT": "HLT_0118",
    "AEHLTCD": null,
    "AEHLGT": "HLGT_0549",
    "AEHLGTCD": null,
    "AEBODSYS": "RESPIRATORY, THORACIC AND MEDIASTINAL DISORDERS",
    "AEBDSYCD": null,
    "AESOC": "RESPIRATORY, THORACIC AND MEDIASTINAL DISORDERS",
    "AESOCCD": null,
    "AESEV": "MILD",
    "AESER": "N",
    "AEACN": "",
    "AEREL": "REMOTE",
    "AEOUT": "NOT RECOVERED/NOT RESOLVED",
    "AESCAN": "N",
    "AESCONG": "N",
    "AESDISAB": "N",
    "AESDTH": "N",
    "AESHOSP": "N",
    "AESLIFE": "N",
    "AESOD": "N",
    "AEDTC": "2014-06-07",
    "AESTDTC": "2014-05-22",
    "AEENDTC": "",
    "AESTDY": 97,
    "AEENDY": null,
    "AETRTEM": "Y",
    "ASTDT": "2014-05-22",
    "AENDT": null,
    "SITEID": "701",
    "TRT01P": "Placebo",
    "TRT01A": "Placebo",
    "TRT01PN": 0,
    "TRT01AN": 0,
    "TRTSDT": "2014-02-15",
    "TRTEDT": "2014-08-16",
    "AGE": 84,
    "AGEGR1": ">80",
    "SEX": "M",
    "RACE": "WHITE",
    "SAFFL": "Y",
    "ITTFL": "Y",
    "EFFFL": "Y",
    "TRTP": "Placebo",
    "TRTA": "Placebo",
    "TRTPN": 0,
    "TRTAN": 0,
    "TRTEMFL": "Y",
    "ASTDY": 97,
    "AENDY": null,
    "AESEVN": 1,
    "CQ01NAM": null,
    "AOCCFL": null,
    "AOCCSFL": "Y",
    "AOCCPFL": "Y"
  },
  {
    "STUDYID": "CDISCPILOT01",
    "DOMAIN": "AE",
    "USUBJID": "01-701-1130",
    "AESEQ": 7,
    "AESPID": "E11",
    "AETERM": "PRURITUS",
    "AELLT": "ITCHING BOTH HANDS",
    "AELLTCD": null,
    "AEDECOD": "PRURITUS",
    "AEPTCD": null,
    "AEHLT": "HLT_0778",
    "AEHLTCD": null,
    "AEHLGT": "HLGT_0695",
    "AEHLGTCD": null,
    "AEBODSYS": "SKIN AND SUBCUTANEOUS TISSUE DISORDERS",
    "AEBDSYCD": null,
    "AESOC": "SKIN AND SUBCUTANEOUS TISSUE DISORDERS",
    "AESOCCD": null,
    "AESEV": "MILD",
    "AESER": "N",
    "AEACN": "",
    "AEREL": "REMOTE",
    "AEOUT": "NOT RECOVERED/NOT RESOLVED",
    "AESCAN": "N",
    "AESCONG": "N",
    "AESDISAB": "N",
    "AESDTH": "N",
    "AESHOSP": "N",
    "AESLIFE": "N",
    "AESOD": "N",
    "AEDTC": "2014-06-07",
    "AESTDTC": "2014-05-22",
    "AEENDTC": "",
    "AESTDY": 97,
    "AEENDY": null,
    "AETRTEM": "Y",
    "ASTDT": "2014-05-22",
    "AENDT": null,
    "SITEID": "701",
    "TRT01P": "Placebo",
    "TRT01A": "Placebo",
    "TRT01PN": 0,
    "TRT01AN": 0,
    "TRTSDT": "2014-02-15",
    "TRTEDT": "2014-08-16",
    "AGE": 84,
    "AGEGR1": ">80",
    "SEX": "M",
    "RACE": "WHITE",
    "SAFFL": "Y",
    "ITTFL": "Y",
    "EFFFL": "Y",
    "TRTP": "Placebo",
    "TRTA": "Placebo",
    "TRTPN": 0,
    "TRTAN": 0,
    "TRTEMFL": "Y",
    "ASTDY": 97,
    "AENDY": null,
    "AESEVN": 1,
    "CQ01NAM": "DERMATOLOGICAL EVENTS",
    "AOCCFL": null,
    "AOCCSFL": "Y",
    "AOCCPFL": "Y"
  },
  {
    "STUDYID": "CDISCPILOT01",
    "DOMAIN": "AE",
    "USUBJID": "01-701-1130",
    "AESEQ": 2,
    "AESPID": "E07",
    "AETERM": "PYREXIA",
    "AELLT": "FEVER",
    "AELLTCD": null,
    "AEDECOD": "PYREXIA",
    "AEPTCD": null,
    "AEHLT": "HLT_0310",
    "AEHLTCD": null,
    "AEHLGT": "HLGT_0652",
    "AEHLGTCD": null,
    "AEBODSYS": "GENERAL DISORDERS AND ADMINISTRATION SITE CONDITIONS",
    "AEBDSYCD": null,
    "AESOC": "GENERAL DISORDERS AND ADMINISTRATION SITE CONDITIONS",
    "AESOCCD": null,
    "AESEV": "MILD",
    "AESER": "N",
    "AEACN": "",
    "AEREL": "NONE",
    "AEOUT": "RECOVERED/RESOLVED",
    "AESCAN": "N",
    "AESCONG": "N",
    "AESDISAB": "N",
    "AESDTH": "N",
    "AESHOSP": "N",
    "AESLIFE": "N",
    "AESOD": "N",
    "AEDTC": "2014-03-15",
    "AESTDTC": "2014-03-09",
    "AEENDTC": "2014-03-09",
    "AESTDY": 23,
    "AEENDY": 23,
    "AETRTEM": "Y",
    "ASTDT": "2014-03-09",
    "AENDT": "2014-03-09",
    "SITEID": "701",
    "TRT01P": "Placebo",
    "TRT01A": "Placebo",
    "TRT01PN": 0,
    "TRT01AN": 0,
    "TRTSDT": "2014-02-15",
    "TRTEDT": "2014-08-16",
    "AGE": 84,
    "AGEGR1": ">80",
    "SEX": "M",
    "RACE": "WHITE",
    "SAFFL": "Y",
    "ITTFL": "Y",
    "EFFFL": "Y",
    "TRTP": "Placebo",
    "TRTA": "Placebo",
    "TRTPN": 0,
    "TRTAN": 0,
    "TRTEMFL": "Y",
    "ASTDY": 23,
    "AENDY": 23,
    "AESEVN": 1,
    "CQ01NAM": null,
    "AOCCFL": null,
    "AOCCSFL": "Y",
    "AOCCPFL": "Y"
  },
  {
    "STUDYID": "CDISCPILOT01",
    "DOMAIN": "AE",
    "USUBJID": "01-701-1130",
    "AESEQ": 1,
    "AESPID": "E06",
    "AETERM": "URINARY TRACT INFECTION",
    "AELLT": "URINARY TRACT INFECTION",
    "AELLTCD": null,
    "AEDECOD": "URINARY TRACT INFECTION",
    "AEPTCD": null,
    "AEHLT": "HLT_0161",
    "AEHLTCD": null,
    "AEHLGT": "HLGT_0093",
    "AEHLGTCD": null,
    "AEBODSYS": "INFECTIONS AND INFESTATIONS",
    "AEBDSYCD": null,
    "AESOC": "INFECTIONS AND INFESTATIONS",
    "AESOCCD": null,
    "AESEV": "MILD",
    "AESER": "N",
    "AEACN": "",
    "AEREL": "NONE",
    "AEOUT": "NOT RECOVERED/NOT RESOLVED",
    "AESCAN": "N",
    "AESCONG": "N",
    "AESDISAB": "N",
    "AESDTH": "N",
    "AESHOSP": "N",
    "AESLIFE": "N",
    "AESOD": "N",
    "AEDTC": "2014-03-15",
    "AESTDTC": "2014-03-09",
    "AEENDTC": "2014-03-16",
    "AESTDY": 23,
    "AEENDY": 30,
    "AETRTEM": "Y",
    "ASTDT": "2014-03-09",
    "AENDT": "2014-03-16",
    "SITEID": "701",
    "TRT01P": "Placebo",
    "TRT01A": "Placebo",
    "TRT01PN": 0,
    "TRT01AN": 0,
    "TRTSDT": "2014-02-15",
    "TRTEDT": "2014-08-16",
    "AGE": 84,
    "AGEGR1": ">80",
    "SEX": "M",
    "RACE": "WHITE",
    "SAFFL": "Y",
    "ITTFL": "Y",
    "EFFFL": "Y",
    "TRTP": "Placebo",
    "TRTA": "Placebo",
    "TRTPN": 0,
    "TRTAN": 0,
    "TRTEMFL": "Y",
    "ASTDY": 23,
    "AENDY": 30,
    "AESEVN": 1,
    "CQ01NAM": null,
    "AOCCFL": "Y",
    "AOCCSFL": "Y",
    "AOCCPFL": "Y"
  },
  {
    "STUDYID": "CDISCPILOT01",
    "DOMAIN": "AE",
    "USUBJID": "01-701-1130",
    "AESEQ": 3,
    "AESPID": "E06",
    "AETERM": "URINARY TRACT INFECTION",
    "AELLT": "URINARY TRACT INFECTION",
    "AELLTCD": null,
    "AEDECOD": "URINARY TRACT INFECTION",
    "AEPTCD": null,
    "AEHLT": "HLT_0161",
    "AEHLTCD": null,
    "AEHLGT": "HLGT_0093",
    "AEHLGTCD": null,
    "AEBODSYS": "INFECTIONS AND INFESTATIONS",
    "AEBDSYCD": null,
    "AESOC": "INFECTIONS AND INFESTATIONS",
    "AESOCCD": null,
    "AESEV": "MILD",
    "AESER": "N",
    "AEACN": "",
    "AEREL": "NONE",
    "AEOUT": "RECOVERED/RESOLVED",
    "AESCAN": "N",
    "AESCONG": "N",
    "AESDISAB": "N",
    "AESDTH": "N",
    "AESHOSP": "N",
    "AESLIFE": "N",
    "AESOD": "N",
    "AEDTC": "2014-03-17",
    "AESTDTC": "2014-03-09",
    "AEENDTC": "2014-03-16",
    "AESTDY": 23,
    "AEENDY": 30,
    "AETRTEM": "Y",
    "ASTDT": "2014-03-09",
    "AENDT": "2014-03-16",
    "SITEID": "701",
    "TRT01P": "Placebo",
    "TRT01A": "Placebo",
    "TRT01PN": 0,
    "TRT01AN": 0,
    "TRTSDT": "2014-02-15",
    "TRTEDT": "2014-08-16",
    "AGE": 84,
    "AGEGR1": ">80",
    "SEX": "M",
    "RACE": "WHITE",
    "SAFFL": "Y",
    "ITTFL": "Y",
    "EFFFL": "Y",
    "TRTP": "Placebo",
    "TRTA": "Placebo",
    "TRTPN": 0,
    "TRTAN": 0,
    "TRTEMFL": "Y",
    "ASTDY": 23,
    "AENDY": 30,
    "AESEVN": 1,
    "CQ01NAM": null,
    "AOCCFL": null,
    "AOCCSFL": null,
    "AOCCPFL": null
  },
  {
    "STUDYID": "CDISCPILOT01",
    "DOMAIN": "AE",
    "USUBJID": "01-701-1133",
    "AESEQ": 1,
    "AESPID": "E04",
    "AETERM": "APPLICATION SITE ERYTHEMA",
    "AELLT": "APPLICATION SITE REDNESS",
    "AELLTCD": null,
    "AEDECOD": "APPLICATION SITE ERYTHEMA",
    "AEPTCD": null,
    "AEHLT": "HLT_0617",
    "AEHLTCD": null,
    "AEHLGT": "HLGT_0152",
    "AEHLGTCD": null,
    "AEBODSYS": "GENERAL DISORDERS AND ADMINISTRATION SITE CONDITIONS",
    "AEBDSYCD": null,
    "AESOC": "GENERAL DISORDERS AND ADMINISTRATION SITE CONDITIONS",
    "AESOCCD": null,
    "AESEV": "MILD",
    "AESER": "N",
    "AEACN": "",
    "AEREL": "PROBABLE",
    "AEOUT": "NOT RECOVERED/NOT RESOLVED",
    "AESCAN": "N",
    "AESCONG": "N",
    "AESDISAB": "N",
    "AESDTH": "N",
    "AESHOSP": "N",
    "AESLIFE": "N",
    "AESOD": "N",
    "AEDTC": "2013-01-22",
    "AESTDTC": "2012-12-27",
    "AEENDTC": "",
    "AESTDY": 61,
    "AEENDY": null,
    "AETRTEM": "Y",
    "ASTDT": "2012-12-27",
    "AENDT": null,
    "SITEID": "701",
    "TRT01P": "Xanomeline High Dose",
    "TRT01A": "Xanomeline High Dose",
    "TRT01PN": 2,
    "TRT01AN": 2,
    "TRTSDT": "2012-10-28",
    "TRTEDT": "2013-04-28",
    "AGE": 81,
    "AGEGR1": ">80",
    "SEX": "F",
    "RACE": "WHITE",
    "SAFFL": "Y",
    "ITTFL": "Y",
    "EFFFL": "Y",
    "TRTP": "Xanomeline High Dose",
    "TRTA": "Xanomeline High Dose",
    "TRTPN": 2,
    "TRTAN": 2,
    "TRTEMFL": "Y",
    "ASTDY": 61,
    "AENDY": null,
    "AESEVN": 1,
    "CQ01NAM": "DERMATOLOGICAL EVENTS",
    "AOCCFL": "Y",
    "AOCCSFL": "Y",
    "AOCCPFL": "Y"
  },
  {
    "STUDYID": "CDISCPILOT01",
    "DOMAIN": "AE",
    "USUBJID": "01-701-1133",
    "AESEQ": 3,
    "AESPID": "E04",
    "AETERM": "APPLICATION SITE ERYTHEMA",
    "AELLT": "APPLICATION SITE REDNESS",
    "AELLTCD": null,
    "AEDECOD": "APPLICATION SITE ERYTHEMA",
    "AEPTCD": null,
    "AEHLT": "HLT_0617",
    "AEHLTCD": null,
    "AEHLGT": "HLGT_0152",
    "AEHLGTCD": null,
    "AEBODSYS": "GENERAL DISORDERS AND ADMINISTRATION SITE CONDITIONS",
    "AEBDSYCD": null,
    "AESOC": "GENERAL DISORDERS AND ADMINISTRATION SITE CONDITIONS",
    "AESOCCD": null,
    "AESEV": "MODERATE",
    "AESER": "N",
    "AEACN": "",
    "AEREL": "PROBABLE",
    "AEOUT": "NOT RECOVERED/NOT RESOLVED",
    "AESCAN": "N",
    "AESCONG": "N",
    "AESDISAB": "N",
    "AESDTH": "N",
    "AESHOSP": "N",
    "AESLIFE": "N",
    "AESOD": "N",
    "AEDTC": "2013-02-18",
    "AESTDTC": "2012-12-27",
    "AEENDTC": "",
    "AESTDY": 61,
    "AEENDY": null,
    "AETRTEM": "Y",
    "ASTDT": "2012-12-27",
    "AENDT": null,
    "SITEID": "701",
    "TRT01P": "Xanomeline High Dose",
    "TRT01A": "Xanomeline High Dose",
    "TRT01PN": 2,
    "TRT01AN": 2,
    "TRTSDT": "2012-10-28",
    "TRTEDT": "2013-04-28",
    "AGE": 81,
    "AGEGR1": ">80",
    "SEX": "F",
    "RACE": "WHITE",
    "SAFFL": "Y",
    "ITTFL": "Y",
    "EFFFL": "Y",
    "TRTP": "Xanomeline High Dose",
    "TRTA": "Xanomeline High Dose",
    "TRTPN": 2,
    "TRTAN": 2,
    "TRTEMFL": "Y",
    "ASTDY": 61,
    "AENDY": null,
    "AESEVN": 2,
    "CQ01NAM": "DERMATOLOGICAL EVENTS",
    "AOCCFL": null,
    "AOCCSFL": null,
    "AOCCPFL": null
  },
  {
    "STUDYID": "CDISCPILOT01",
    "DOMAIN": "AE",
    "USUBJID": "01-701-1133",
    "AESEQ": 2,
    "AESPID": "E05",
    "AETERM": "APPLICATION SITE PRURITUS",
    "AELLT": "APPLICATION SITE ITCHING",
    "AELLTCD": null,
    "AEDECOD": "APPLICATION SITE PRURITUS",
    "AEPTCD": null,
    "AEHLT": "HLT_0317",
    "AEHLTCD": null,
    "AEHLGT": "HLGT_0338",
    "AEHLGTCD": null,
    "AEBODSYS": "GENERAL DISORDERS AND ADMINISTRATION SITE CONDITIONS",
    "AEBDSYCD": null,
    "AESOC": "GENERAL DISORDERS AND ADMINISTRATION SITE CONDITIONS",
    "AESOCCD": null,
    "AESEV": "MILD",
    "AESER": "N",
    "AEACN": "",
    "AEREL": "PROBABLE",
    "AEOUT": "NOT RECOVERED/NOT RESOLVED",
    "AESCAN": "N",
    "AESCONG": "N",
    "AESDISAB": "N",
    "AESDTH": "N",
    "AESHOSP": "N",
    "AESLIFE": "N",
    "AESOD": "N",
    "AEDTC": "2013-01-22",
    "AESTDTC": "2012-12-27",
    "AEENDTC": "",
    "AESTDY": 61,
    "AEENDY": null,
    "AETRTEM": "Y",
    "ASTDT": "2012-12-27",
    "AENDT": null,
    "SITEID": "701",
    "TRT01P": "Xanomeline High Dose",
    "TRT01A": "Xanomeline High Dose",
    "TRT01PN": 2,
    "TRT01AN": 2,
    "TRTSDT": "2012-10-28",
    "TRTEDT": "2013-04-28",
    "AGE": 81,
    "AGEGR1": ">80",
    "SEX": "F",
    "RACE": "WHITE",
    "SAFFL": "Y",
    "ITTFL": "Y",
    "EFFFL": "Y",
    "TRTP": "Xanomeline High Dose",
    "TRTA": "Xanomeline High Dose",
    "TRTPN": 2,
    "TRTAN": 2,
    "TRTEMFL": "Y",
    "ASTDY": 61,
    "AENDY": null,
    "AESEVN": 1,
    "CQ01NAM": "DERMATOLOGICAL EVENTS",
    "AOCCFL": null,
    "AOCCSFL": null,
    "AOCCPFL": "Y"
  },
  {
    "STUDYID": "CDISCPILOT01",
    "DOMAIN": "AE",
    "USUBJID": "01-701-1133",
    "AESEQ": 4,
    "AESPID": "E05",
    "AETERM": "APPLICATION SITE PRURITUS",
    "AELLT": "APPLICATION SITE ITCHING",
    "AELLTCD": null,
    "AEDECOD": "APPLICATION SITE PRURITUS",
    "AEPTCD": null,
    "AEHLT": "HLT_0317",
    "AEHLTCD": null,
    "AEHLGT": "HLGT_0338",
    "AEHLGTCD": null,
    "AEBODSYS": "GENERAL DISORDERS AND ADMINISTRATION SITE CONDITIONS",
    "AEBDSYCD": null,
    "AESOC": "GENERAL DISORDERS AND ADMINISTRATION SITE CONDITIONS",
    "AESOCCD": null,
    "AESEV": "MODERATE",
    "AESER": "N",
    "AEACN": "",
    "AEREL": "PROBABLE",
    "AEOUT": "NOT RECOVERED/NOT RESOLVED",
    "AESCAN": "N",
    "AESCONG": "N",
    "AESDISAB": "N",
    "AESDTH": "N",
    "AESHOSP": "N",
    "AESLIFE": "N",
    "AESOD": "N",
    "AEDTC": "2013-02-18",
    "AESTDTC": "2012-12-27",
    "AEENDTC": "",
    "AESTDY": 61,
    "AEENDY": null,
    "AETRTEM": "Y",
    "ASTDT": "2012-12-27",
    "AENDT": null,
    "SITEID": "701",
    "TRT01P": "Xanomeline High Dose",
    "TRT01A": "Xanomeline High Dose",
    "TRT01PN": 2,
    "TRT01AN": 2,
    "TRTSDT": "2012-10-28",
    "TRTEDT": "2013-04-28",
    "AGE": 81,
    "AGEGR1": ">80",
    "SEX": "F",
    "RACE": "WHITE",
    "SAFFL": "Y",
    "ITTFL": "Y",
    "EFFFL": "Y",
    "TRTP": "Xanomeline High Dose",
    "TRTA": "Xanomeline High Dose",
    "TRTPN": 2,
    "TRTAN": 2,
    "TRTEMFL": "Y",
    "ASTDY": 61,
    "AENDY": null,
    "AESEVN": 2,
    "CQ01NAM": "DERMATOLOGICAL EVENTS",
    "AOCCFL": null,
    "AOCCSFL": null,
    "AOCCPFL": null
  },
  {
    "STUDYID": "CDISCPILOT01",
    "DOMAIN": "AE",
    "USUBJID": "01-701-1146",
    "AESEQ": 5,
    "AESPID": "E12",
    "AETERM": "APPLICATION SITE ERYTHEMA",
    "AELLT": "APPLICATION SITE ERYTHEMA",
    "AELLTCD": null,
    "AEDECOD": "APPLICATION SITE ERYTHEMA",
    "AEPTCD": null,
    "AEHLT": "HLT_0617",
    "AEHLTCD": null,
    "AEHLGT": "HLGT_0152",
    "AEHLGTCD": null,
    "AEBODSYS": "GENERAL DISORDERS AND ADMINISTRATION SITE CONDITIONS",
    "AEBDSYCD": null,
    "AESOC": "GENERAL DISORDERS AND ADMINISTRATION SITE CONDITIONS",
    "AESOCCD": null,
    "AESEV": "MILD",
    "AESER": "N",
    "AEACN": "",
    "AEREL": "PROBABLE",
    "AEOUT": "NOT RECOVERED/NOT RESOLVED",
    "AESCAN": "N",
    "AESCONG": "N",
    "AESDISAB": "N",
    "AESDTH": "N",
    "AESHOSP": "N",
    "AESLIFE": "N",
    "AESOD": "N",
    "AEDTC": "2013-06-16",
    "AESTDTC": "2013-06-10",
    "AEENDTC": "",
    "AESTDY": 22,
    "AEENDY": null,
    "AETRTEM": "Y",
    "ASTDT": "2013-06-10",
    "AENDT": null,
    "SITEID": "701",
    "TRT01P": "Xanomeline High Dose",
    "TRT01A": "Xanomeline High Dose",
    "TRT01PN": 2,
    "TRT01AN": 2,
    "TRTSDT": "2013-05-20",
    "TRTEDT": "2013-06-26",
    "AGE": 75,
    "AGEGR1": "65-80",
    "SEX": "F",
    "RACE": "WHITE",
    "SAFFL": "Y",
    "ITTFL": "Y",
    "EFFFL": "Y",
    "TRTP": "Xanomeline High Dose",
    "TRTA": "Xanomeline High Dose",
    "TRTPN": 2,
    "TRTAN": 2,
    "TRTEMFL": "Y",
    "ASTDY": 22,
    "AENDY": null,
    "AESEVN": 1,
    "CQ01NAM": "DERMATOLOGICAL EVENTS",
    "AOCCFL": null,
    "AOCCSFL": null,
    "AOCCPFL": "Y"
  },
  {
    "STUDYID": "CDISCPILOT01",
    "DOMAIN": "AE",
    "USUBJID": "01-701-1146",
    "AESEQ": 7,
    "AESPID": "E12",
    "AETERM": "APPLICATION SITE ERYTHEMA",
    "AELLT": "APPLICATION SITE ERYTHEMA",
    "AELLTCD": null,
    "AEDECOD": "APPLICATION SITE ERYTHEMA",
    "AEPTCD": null,
    "AEHLT": "HLT_0617",
    "AEHLTCD": null,
    "AEHLGT": "HLGT_0152",
    "AEHLGTCD": null,
    "AEBODSYS": "GENERAL DISORDERS AND ADMINISTRATION SITE CONDITIONS",
    "AEBDSYCD": null,
    "AESOC": "GENERAL DISORDERS AND ADMINISTRATION SITE CONDITIONS",
    "AESOCCD": null,
    "AESEV": "MODERATE",
    "AESER": "N",
    "AEACN": "",
    "AEREL": "PROBABLE",
    "AEOUT": "NOT RECOVERED/NOT RESOLVED",
    "AESCAN": "N",
    "AESCONG": "N",
    "AESDISAB": "N",
    "AESDTH": "N",
    "AESHOSP": "N",
    "AESLIFE": "N",
    "AESOD": "N",
    "AEDTC": "2013-06-30",
    "AESTDTC": "2013-06-10",
    "AEENDTC": "",
    "AESTDY": 22,
    "AEENDY": null,
    "AETRTEM": "Y",
    "ASTDT": "2013-06-10",
    "AENDT": null,
    "SITEID": "701",
    "TRT01P": "Xanomeline High Dose",
    "TRT01A": "Xanomeline High Dose",
    "TRT01PN": 2,
    "TRT01AN": 2,
    "TRTSDT": "2013-05-20",
    "TRTEDT": "2013-06-26",
    "AGE": 75,
    "AGEGR1": "65-80",
    "SEX": "F",
    "RACE": "WHITE",
    "SAFFL": "Y",
    "ITTFL": "Y",
    "EFFFL": "Y",
    "TRTP": "Xanomeline High Dose",
    "TRTA": "Xanomeline High Dose",
    "TRTPN": 2,
    "TRTAN": 2,
    "TRTEMFL": "Y",
    "ASTDY": 22,
    "AENDY": null,
    "AESEVN": 2,
    "CQ01NAM": "DERMATOLOGICAL EVENTS",
    "AOCCFL": null,
    "AOCCSFL": null,
    "AOCCPFL": null
  },
  {
    "STUDYID": "CDISCPILOT01",
    "DOMAIN": "AE",
    "USUBJID": "01-701-1146",
    "AESEQ": 3,
    "AESPID": "E10",
    "AETERM": "APPLICATION SITE IRRITATION",
    "AELLT": "APPLICATION SITE IRRITATION",
    "AELLTCD": null,
    "AEDECOD": "APPLICATION SITE IRRITATION",
    "AEPTCD": null,
    "AEHLT": "HLT_0061",
    "AEHLTCD": null,
    "AEHLGT": "HLGT_0346",
    "AEHLGTCD": null,
    "AEBODSYS": "GENERAL DISORDERS AND ADMINISTRATION SITE CONDITIONS",
    "AEBDSYCD": null,
    "AESOC": "GENERAL DISORDERS AND ADMINISTRATION SITE CONDITIONS",
    "AESOCCD": null,
    "AESEV": "MILD",
    "AESER": "N",
    "AEACN": "",
    "AEREL": "PROBABLE",
    "AEOUT": "RECOVERED/RESOLVED",
    "AESCAN": "N",
    "AESCONG": "N",
    "AESDISAB": "N",
    "AESDTH": "N",
    "AESHOSP": "N",
    "AESLIFE": "N",
    "AESOD": "N",
    "AEDTC": "2013-06-03",
    "AESTDTC": "2013-06-01",
    "AEENDTC": "2013-06-02",
    "AESTDY": 13,
    "AEENDY": 14,
    "AETRTEM": "Y",
    "ASTDT": "2013-06-01",
    "AENDT": "2013-06-02",
    "SITEID": "701",
    "TRT01P": "Xanomeline High Dose",
    "TRT01A": "Xanomeline High Dose",
    "TRT01PN": 2,
    "TRT01AN": 2,
    "TRTSDT": "2013-05-20",
    "TRTEDT": "2013-06-26",
    "AGE": 75,
    "AGEGR1": "65-80",
    "SEX": "F",
    "RACE": "WHITE",
    "SAFFL": "Y",
    "ITTFL": "Y",
    "EFFFL": "Y",
    "TRTP": "Xanomeline High Dose",
    "TRTA": "Xanomeline High Dose",
    "TRTPN": 2,
    "TRTAN": 2,
    "TRTEMFL": "Y",
    "ASTDY": 13,
    "AENDY": 14,
    "AESEVN": 1,
    "CQ01NAM": null,
    "AOCCFL": "Y",
    "AOCCSFL": "Y",
    "AOCCPFL": "Y"
  },
  {
    "STUDYID": "CDISCPILOT01",
    "DOMAIN": "AE",
    "USUBJID": "01-701-1146",
    "AESEQ": 11,
    "AESPID": "E16",
    "AETERM": "APPLICATION SITE IRRITATION",
    "AELLT": "APPLICATION SITE BURNING",
    "AELLTCD": null,
    "AEDECOD": "APPLICATION SITE IRRITATION",
    "AEPTCD": null,
    "AEHLT": "HLT_0061",
    "AEHLTCD": null,
    "AEHLGT": "HLGT_0346",
    "AEHLGTCD": null,
    "AEBODSYS": "GENERAL DISORDERS AND ADMINISTRATION SITE CONDITIONS",
    "AEBDSYCD": null,
    "AESOC": "GENERAL DISORDERS AND ADMINISTRATION SITE CONDITIONS",
    "AESOCCD": null,
    "AESEV": "MODERATE",
    "AESER": "N",
    "AEACN": "",
    "AEREL": "PROBABLE",
    "AEOUT": "NOT RECOVERED/NOT RESOLVED",
    "AESCAN": "N",
    "AESCONG": "N",
    "AESDISAB": "N",
    "AESDTH": "N",
    "AESHOSP": "N",
    "AESLIFE": "N",
    "AESOD": "N",
    "AEDTC": "2013-06-30",
    "AESTDTC": "2013-06-26",
    "AEENDTC": "",
    "AESTDY": 38,
    "AEENDY": null,
    "AETRTEM": "Y",
    "ASTDT": "2013-06-26",
    "AENDT": null,
    "SITEID": "701",
    "TRT01P": "Xanomeline High Dose",
    "TRT01A": "Xanomeline High Dose",
    "TRT01PN": 2,
    "TRT01AN": 2,
    "TRTSDT": "2013-05-20",
    "TRTEDT": "2013-06-26",
    "AGE": 75,
    "AGEGR1": "65-80",
    "SEX": "F",
    "RACE": "WHITE",
    "SAFFL": "Y",
    "ITTFL": "Y",
    "EFFFL": "Y",
    "TRTP": "Xanomeline High Dose",
    "TRTA": "Xanomeline High Dose",
    "TRTPN": 2,
    "TRTAN": 2,
    "TRTEMFL": "Y",
    "ASTDY": 38,
    "AENDY": null,
    "AESEVN": 2,
    "CQ01NAM": null,
    "AOCCFL": null,
    "AOCCSFL": null,
    "AOCCPFL": null
  },
  {
    "STUDYID": "CDISCPILOT01",
    "DOMAIN": "AE",
    "USUBJID": "01-701-1146",
    "AESEQ": 9,
    "AESPID": "E14",
    "AETERM": "APPLICATION SITE PAIN",
    "AELLT": "APPLICATION SITE PAIN",
    "AELLTCD": null,
    "AEDECOD": "APPLICATION SITE PAIN",
    "AEPTCD": null,
    "AEHLT": "HLT_0342",
    "AEHLTCD": null,
    "AEHLGT": "HLGT_0085",
    "AEHLGTCD": null,
    "AEBODSYS": "GENERAL DISORDERS AND ADMINISTRATION SITE CONDITIONS",
    "AEBDSYCD": null,
    "AESOC": "GENERAL DISORDERS AND ADMINISTRATION SITE CONDITIONS",
    "AESOCCD": null,
    "AESEV": "MODERATE",
    "AESER": "N",
    "AEACN": "",
    "AEREL": "PROBABLE",
    "AEOUT": "NOT RECOVERED/NOT RESOLVED",
    "AESCAN": "N",
    "AESCONG": "N",
    "AESDISAB": "N",
    "AESDTH": "N",
    "AESHOSP": "N",
    "AESLIFE": "N",
    "AESOD": "N",
    "AEDTC": "2013-06-30",
    "AESTDTC": "2013-06-22",
    "AEENDTC": "",
    "AESTDY": 34,
    "AEENDY": null,
    "AETRTEM": "Y",
    "ASTDT": "2013-06-22",
    "AENDT": null,
    "SITEID": "701",
    "TRT01P": "Xanomeline High Dose",
    "TRT01A": "Xanomeline High Dose",
    "TRT01PN": 2,
    "TRT01AN": 2,
    "TRTSDT": "2013-05-20",
    "TRTEDT": "2013-06-26",
    "AGE": 75,
    "AGEGR1": "65-80",
    "SEX": "F",
    "RACE": "WHITE",
    "SAFFL": "Y",
    "ITTFL": "Y",
    "EFFFL": "Y",
    "TRTP": "Xanomeline High Dose",
    "TRTA": "Xanomeline High Dose",
    "TRTPN": 2,
    "TRTAN": 2,
    "TRTEMFL": "Y",
    "ASTDY": 34,
    "AENDY": null,
    "AESEVN": 2,
    "CQ01NAM": null,
    "AOCCFL": null,
    "AOCCSFL": null,
    "AOCCPFL": "Y"
  },
  {
    "STUDYID": "CDISCPILOT01",
    "DOMAIN": "AE",
    "USUBJID": "01-701-1146",
    "AESEQ": 6,
    "AESPID": "E13",
    "AETERM": "APPLICATION SITE PRURITUS",
    "AELLT": "APPLICATION SITE ITCHING",
    "AELLTCD": null,
    "AEDECOD": "APPLICATION SITE PRURITUS",
    "AEPTCD": null,
    "AEHLT": "HLT_0317",
    "AEHLTCD": null,
    "AEHLGT": "HLGT_0338",
    "AEHLGTCD": null,
    "AEBODSYS": "GENERAL DISORDERS AND ADMINISTRATION SITE CONDITIONS",
    "AEBDSYCD": null,
    "AESOC": "GENERAL DISORDERS AND ADMINISTRATION SITE CONDITIONS",
    "AESOCCD": null,
    "AESEV": "MILD",
    "AESER": "N",
    "AEACN": "",
    "AEREL": "PROBABLE",
    "AEOUT": "NOT RECOVERED/NOT RESOLVED",
    "AESCAN": "N",
    "AESCONG": "N",
    "AESDISAB": "N",
    "AESDTH": "N",
    "AESHOSP": "N",
    "AESLIFE": "N",
    "AESOD": "N",
    "AEDTC": "2013-06-16",
    "AESTDTC": "2013-06-10",
    "AEENDTC": "",
    "AESTDY": 22,
    "AEENDY": null,
    "AETRTEM": "Y",
    "ASTDT": "2013-06-10",
    "AENDT": null,
    "SITEID": "701",
    "TRT01P": "Xanomeline High Dose",
    "TRT01A": "Xanomeline High Dose",
    "TRT01PN": 2,
    "TRT01AN": 2,
    "TRTSDT": "2013-05-20",
    "TRTEDT": "2013-06-26",
    "AGE": 75,
    "AGEGR1": "65-80",
    "SEX": "F",
    "RACE": "WHITE",
    "SAFFL": "Y",
    "ITTFL": "Y",
    "EFFFL": "Y",
    "TRTP": "Xanomeline High Dose",
    "TRTA": "Xanomeline High Dose",
    "TRTPN": 2,
    "TRTAN": 2,
    "TRTEMFL": "Y",
    "ASTDY": 22,
    "AENDY": null,
    "AESEVN": 1,
    "CQ01NAM": "DERMATOLOGICAL EVENTS",
    "AOCCFL": null,
    "AOCCSFL": null,
    "AOCCPFL": "Y"
  },
  {
    "STUDYID": "CDISCPILOT01",
    "DOMAIN": "AE",
    "USUBJID": "01-701-1146",
    "AESEQ": 8,
    "AESPID": "E13",
    "AETERM": "APPLICATION SITE PRURITUS",
    "AELLT": "APPLICATION SITE ITCHING",
    "AELLTCD": null,
    "AEDECOD": "APPLICATION SITE PRURITUS",
    "AEPTCD": null,
    "AEHLT": "HLT_0317",
    "AEHLTCD": null,
    "AEHLGT": "HLGT_0338",
    "AEHLGTCD": null,
    "AEBODSYS": "GENERAL DISORDERS AND ADMINISTRATION SITE CONDITIONS",
    "AEBDSYCD": null,
    "AESOC": "GENERAL DISORDERS AND ADMINISTRATION SITE CONDITIONS",
    "AESOCCD": null,
    "AESEV": "MODERATE",
    "AESER": "N",
    "AEACN": "",
    "AEREL": "PROBABLE",
    "AEOUT": "NOT RECOVERED/NOT RESOLVED",
    "AESCAN": "N",
    "AESCONG": "N",
    "AESDISAB": "N",
    "AESDTH": "N",
    "AESHOSP": "N",
    "AESLIFE": "N",
    "AESOD": "N",
    "AEDTC": "2013-06-30",
    "AESTDTC": "2013-06-10",
    "AEENDTC": "",
    "AESTDY": 22,
    "AEENDY": null,
    "AETRTEM": "Y",
    "ASTDT": "2013-06-10",
    "AENDT": null,
    "SITEID": "701",
    "TRT01P": "Xanomeline High Dose",
    "TRT01A": "Xanomeline High Dose",
    "TRT01PN": 2,
    "TRT01AN": 2,
    "TRTSDT": "2013-05-20",
    "TRTEDT": "2013-06-26",
    "AGE": 75,
    "AGEGR1": "65-80",
    "SEX": "F",
    "RACE": "WHITE",
    "SAFFL": "Y",
    "ITTFL": "Y",
    "EFFFL": "Y",
    "TRTP": "Xanomeline High Dose",
    "TRTA": "Xanomeline High Dose",
    "TRTPN": 2,
    "TRTAN": 2,
    "TRTEMFL": "Y",
    "ASTDY": 22,
    "AENDY": null,
    "AESEVN": 2,
    "CQ01NAM": "DERMATOLOGICAL EVENTS",
    "AOCCFL": null,
    "AOCCSFL": null,
    "AOCCPFL": null
  },
  {
    "STUDYID": "CDISCPILOT01",
    "DOMAIN": "AE",
    "USUBJID": "01-701-1146",
    "AESEQ": 10,
    "AESPID": "E15",
    "AETERM": "APPLICATION SITE VESICLES",
    "AELLT": "APPLICATION SITE VESICLES",
    "AELLTCD": null,
    "AEDECOD": "APPLICATION SITE VESICLES",
    "AEPTCD": null,
    "AEHLT": "HLT_0180",
    "AEHLTCD": null,
    "AEHLGT": "HLGT_0576",
    "AEHLGTCD": null,
    "AEBODSYS": "GENERAL DISORDERS AND ADMINISTRATION SITE CONDITIONS",
    "AEBDSYCD": null,
    "AESOC": "GENERAL DISORDERS AND ADMINISTRATION SITE CONDITIONS",
    "AESOCCD": null,
    "AESEV": "MODERATE",
    "AESER": "N",
    "AEACN": "",
    "AEREL": "PROBABLE",
    "AEOUT": "NOT RECOVERED/NOT RESOLVED",
    "AESCAN": "N",
    "AESCONG": "N",
    "AESDISAB": "N",
    "AESDTH": "N",
    "AESHOSP": "N",
    "AESLIFE": "N",
    "AESOD": "N",
    "AEDTC": "2013-06-30",
    "AESTDTC": "2013-06-26",
    "AEENDTC": "",
    "AESTDY": 38,
    "AEENDY": null,
    "AETRTEM": "Y",
    "ASTDT": "2013-06-26",
    "AENDT": null,
    "SITEID": "701",
    "TRT01P": "Xanomeline High Dose",
    "TRT01A": "Xanomeline High Dose",
    "TRT01PN": 2,
    "TRT01AN": 2,
    "TRTSDT": "2013-05-20",
    "TRTEDT": "2013-06-26",
    "AGE": 75,
    "AGEGR1": "65-80",
    "SEX": "F",
    "RACE": "WHITE",
    "SAFFL": "Y",
    "ITTFL": "Y",
    "EFFFL": "Y",
    "TRTP": "Xanomeline High Dose",
    "TRTA": "Xanomeline High Dose",
    "TRTPN": 2,
    "TRTAN": 2,
    "TRTEMFL": "Y",
    "ASTDY": 38,
    "AENDY": null,
    "AESEVN": 2,
    "CQ01NAM": null,
    "AOCCFL": null,
    "AOCCSFL": null,
    "AOCCPFL": "Y"
  },
  {
    "STUDYID": "CDISCPILOT01",
    "DOMAIN": "AE",
    "USUBJID": "01-701-1146",
    "AESEQ": 4,
    "AESPID": "E11",
    "AETERM": "FATIGUE",
    "AELLT": "FATIGUE",
    "AELLTCD": null,
    "AEDECOD": "FATIGUE",
    "AEPTCD": null,
    "AEHLT": "HLT_0043",
    "AEHLTCD": null,
    "AEHLGT": "HLGT_0181",
    "AEHLGTCD": null,
    "AEBODSYS": "GENERAL DISORDERS AND ADMINISTRATION SITE CONDITIONS",
    "AEBDSYCD": null,
    "AESOC": "GENERAL DISORDERS AND ADMINISTRATION SITE CONDITIONS",
    "AESOCCD": null,
    "AESEV": "MILD",
    "AESER": "N",
    "AEACN": "",
    "AEREL": "POSSIBLE",
    "AEOUT": "NOT RECOVERED/NOT RESOLVED",
    "AESCAN": "N",
    "AESCONG": "N",
    "AESDISAB": "N",
    "AESDTH": "N",
    "AESHOSP": "N",
    "AESLIFE": "N",
    "AESOD": "N",
    "AEDTC": "2013-06-03",
    "AESTDTC": "2013-06-03",
    "AEENDTC": "",
    "AESTDY": 15,
    "AEENDY": null,
    "AETRTEM": "Y",
    "ASTDT": "2013-06-03",
    "AENDT": null,
    "SITEID": "701",
    "TRT01P": "Xanomeline High Dose",
    "TRT01A": "Xanomeline High Dose",
    "TRT01PN": 2,
    "TRT01AN": 2,
    "TRTSDT": "2013-05-20",
    "TRTEDT": "2013-06-26",
    "AGE": 75,
    "AGEGR1": "65-80",
    "SEX": "F",
    "RACE": "WHITE",
    "SAFFL": "Y",
    "ITTFL": "Y",
    "EFFFL": "Y",
    "TRTP": "Xanomeline High Dose",
    "TRTA": "Xanomeline High Dose",
    "TRTPN": 2,
    "TRTAN": 2,
    "TRTEMFL": "Y",
    "ASTDY": 15,
    "AENDY": null,
    "AESEVN": 1,
    "CQ01NAM": null,
    "AOCCFL": null,
    "AOCCSFL": null,
    "AOCCPFL": "Y"
  },
  {
    "STUDYID": "CDISCPILOT01",
    "DOMAIN": "AE",
    "USUBJID": "01-701-1146",
    "AESEQ": 1,
    "AESPID": "E09",
    "AETERM": "RASH",
    "AELLT": "RASH",
    "AELLTCD": null,
    "AEDECOD": "RASH",
    "AEPTCD": null,
    "AEHLT": "HLT_0762",
    "AEHLTCD": null,
    "AEHLGT": "HLGT_0198",
    "AEHLGTCD": null,
    "AEBODSYS": "SKIN AND SUBCUTANEOUS TISSUE DISORDERS",
    "AEBDSYCD": null,
    "AESOC": "SKIN AND SUBCUTANEOUS TISSUE DISORDERS",
    "AESOCCD": null,
    "AESEV": "MILD",
    "AESER": "N",
    "AEACN": "",
    "AEREL": "NONE",
    "AEOUT": "NOT RECOVERED/NOT RESOLVED",
    "AESCAN": "N",
    "AESCONG": "N",
    "AESDISAB": "N",
    "AESDTH": "N",
    "AESHOSP": "N",
    "AESLIFE": "N",
    "AESOD": "N",
    "AEDTC": "2013-05-18",
    "AESTDTC": "2013-05-16",
    "AEENDTC": "2013-06-02",
    "AESTDY": -4,
    "AEENDY": 14,
    "AETRTEM": "N",
    "ASTDT": "2013-05-16",
    "AENDT": "2013-06-02",
    "SITEID": "701",
    "TRT01P": "Xanomeline High Dose",
    "TRT01A": "Xanomeline High Dose",
    "TRT01PN": 2,
    "TRT01AN": 2,
    "TRTSDT": "2013-05-20",
    "TRTEDT": "2013-06-26",
    "AGE": 75,
    "AGEGR1": "65-80",
    "SEX": "F",
    "RACE": "WHITE",
    "SAFFL": "Y",
    "ITTFL": "Y",
    "EFFFL": "Y",
    "TRTP": "Xanomeline High Dose",
    "TRTA": "Xanomeline High Dose",
    "TRTPN": 2,
    "TRTAN": 2,
    "TRTEMFL": null,
    "ASTDY": -4,
    "AENDY": 14,
    "AESEVN": 1,
    "CQ01NAM": "DERMATOLOGICAL EVENTS",
    "AOCCFL": null,
    "AOCCSFL": null,
    "AOCCPFL": null
  },
  {
    "STUDYID": "CDISCPILOT01",
    "DOMAIN": "AE",
    "USUBJID": "01-701-1146",
    "AESEQ": 2,
    "AESPID": "E09",
    "AETERM": "RASH",
    "AELLT": "RASH",
    "AELLTCD": null,
    "AEDECOD": "RASH",
    "AEPTCD": null,
    "AEHLT": "HLT_0762",
    "AEHLTCD": null,
    "AEHLGT": "HLGT_0198",
    "AEHLGTCD": null,
    "AEBODSYS": "SKIN AND SUBCUTANEOUS TISSUE DISORDERS",
    "AEBDSYCD": null,
    "AESOC": "SKIN AND SUBCUTANEOUS TISSUE DISORDERS",
    "AESOCCD": null,
    "AESEV": "MILD",
    "AESER": "N",
    "AEACN": "",
    "AEREL": "NONE",
    "AEOUT": "RECOVERED/RESOLVED",
    "AESCAN": "N",
    "AESCONG": "N",
    "AESDISAB": "N",
    "AESDTH": "N",
    "AESHOSP": "N",
    "AESLIFE": "N",
    "AESOD": "N",
    "AEDTC": "2013-06-03",
    "AESTDTC": "2013-05-16",
    "AEENDTC": "2013-06-02",
    "AESTDY": -4,
    "AEENDY": 14,
    "AETRTEM": "N",
    "ASTDT": "2013-05-16",
    "AENDT": "2013-06-02",
    "SITEID": "701",
    "TRT01P": "Xanomeline High Dose",
    "TRT01A": "Xanomeline High Dose",
    "TRT01PN": 2,
    "TRT01AN": 2,
    "TRTSDT": "2013-05-20",
    "TRTEDT": "2013-06-26",
    "AGE": 75,
    "AGEGR1": "65-80",
    "SEX": "F",
    "RACE": "WHITE",
    "SAFFL": "Y",
    "ITTFL": "Y",
    "EFFFL": "Y",
    "TRTP": "Xanomeline High Dose",
    "TRTA": "Xanomeline High Dose",
    "TRTPN": 2,
    "TRTAN": 2,
    "TRTEMFL": null,
    "ASTDY": -4,
    "AENDY": 14,
    "AESEVN": 1,
    "CQ01NAM": "DERMATOLOGICAL EVENTS",
    "AOCCFL": null,
    "AOCCSFL": null,
    "AOCCPFL": null
  },
  {
    "STUDYID": "CDISCPILOT01",
    "DOMAIN": "AE",
    "USUBJID": "01-701-1148",
    "AESEQ": 10,
    "AESPID": "E27",
    "AETERM": "ACTINIC KERATOSIS",
    "AELLT": "ACTINIC KERATOSIS",
    "AELLTCD": null,
    "AEDECOD": "ACTINIC KERATOSIS",
    "AEPTCD": null,
    "AEHLT": "HLT_0609",
    "AEHLTCD": null,
    "AEHLGT": "HLGT_0490",
    "AEHLGTCD": null,
    "AEBODSYS": "SKIN AND SUBCUTANEOUS TISSUE DISORDERS",
    "AEBDSYCD": null,
    "AESOC": "SKIN AND SUBCUTANEOUS TISSUE DISORDERS",
    "AESOCCD": null,
    "AESEV": "MILD",
    "AESER": "N",
    "AEACN": "",
    "AEREL": "NONE",
    "AEOUT": "NOT RECOVERED/NOT RESOLVED",
    "AESCAN": "N",
    "AESCONG": "N",
    "AESDISAB": "N",
    "AESDTH": "N",
    "AESHOSP": "N",
    "AESLIFE": "N",
    "AESOD": "N",
    "AEDTC": "2014-02-20",
    "AESTDTC": "2014-02-12",
    "AEENDTC": "",
    "AESTDY": 174,
    "AEENDY": null,
    "AETRTEM": "Y",
    "ASTDT": "2014-02-12",
    "AENDT": null,
    "SITEID": "701",
    "TRT01P": "Xanomeline High Dose",
    "TRT01A": "Xanomeline High Dose",
    "TRT01PN": 2,
    "TRT01AN": 2,
    "TRTSDT": "2013-08-23",
    "TRTEDT": "2014-02-20",
    "AGE": 57,
    "AGEGR1": "<65",
    "SEX": "M",
    "RACE": "WHITE",
    "SAFFL": "Y",
    "ITTFL": "Y",
    "EFFFL": "Y",
    "TRTP": "Xanomeline High Dose",
    "TRTA": "Xanomeline High Dose",
    "TRTPN": 2,
    "TRTAN": 2,
    "TRTEMFL": "Y",
    "ASTDY": 174,
    "AENDY": null,
    "AESEVN": 1,
    "CQ01NAM": "DERMATOLOGICAL EVENTS",
    "AOCCFL": null,
    "AOCCSFL": "Y",
    "AOCCPFL": "Y"
  },
  {
    "STUDYID": "CDISCPILOT01",
    "DOMAIN": "AE",
    "USUBJID": "01-701-1148",
    "AESEQ": 1,
    "AESPID": "E20",
    "AETERM": "APPLICATION SITE ERYTHEMA",
    "AELLT": "APPLICATION SITE REDNESS",
    "AELLTCD": null,
    "AEDECOD": "APPLICATION SITE ERYTHEMA",
    "AEPTCD": null,
    "AEHLT": "HLT_0617",
    "AEHLTCD": null,
    "AEHLGT": "HLGT_0152",
    "AEHLGTCD": null,
    "AEBODSYS": "GENERAL DISORDERS AND ADMINISTRATION SITE CONDITIONS",
    "AEBDSYCD": null,
    "AESOC": "GENERAL DISORDERS AND ADMINISTRATION SITE CONDITIONS",
    "AESOCCD": null,
    "AESEV": "MILD",
    "AESER": "N",
    "AEACN": "",
    "AEREL": "PROBABLE",
    "AEOUT": "NOT RECOVERED/NOT RESOLVED",
    "AESCAN": "N",
    "AESCONG": "N",
    "AESDISAB": "N",
    "AESDTH": "N",
    "AESHOSP": "N",
    "AESLIFE": "N",
    "AESOD": "N",
    "AEDTC": "2013-09-05",
    "AESTDTC": "2013-08-25",
    "AEENDTC": "",
    "AESTDY": 3,
    "AEENDY": null,
    "AETRTEM": "Y",
    "ASTDT": "2013-08-25",
    "AENDT": null,
    "SITEID": "701",
    "TRT01P": "Xanomeline High Dose",
    "TRT01A": "Xanomeline High Dose",
    "TRT01PN": 2,
    "TRT01AN": 2,
    "TRTSDT": "2013-08-23",
    "TRTEDT": "2014-02-20",
    "AGE": 57,
    "AGEGR1": "<65",
    "SEX": "M",
    "RACE": "WHITE",
    "SAFFL": "Y",
    "ITTFL": "Y",
    "EFFFL": "Y",
    "TRTP": "Xanomeline High Dose",
    "TRTA": "Xanomeline High Dose",
    "TRTPN": 2,
    "TRTAN": 2,
    "TRTEMFL": "Y",
    "ASTDY": 3,
    "AENDY": null,
    "AESEVN": 1,
    "CQ01NAM": "DERMATOLOGICAL EVENTS",
    "AOCCFL": "Y",
    "AOCCSFL": "Y",
    "AOCCPFL": "Y"
  },
  {
    "STUDYID": "CDISCPILOT01",
    "DOMAIN": "AE",
    "USUBJID": "01-701-1148",
    "AESEQ": 2,
    "AESPID": "E21",
    "AETERM": "APPLICATION SITE PRURITUS",
    "AELLT": "APPLICATION SITE ITCHING",
    "AELLTCD": null,
    "AEDECOD": "APPLICATION SITE PRURITUS",
    "AEPTCD": null,
    "AEHLT": "HLT_0317",
    "AEHLTCD": null,
    "AEHLGT": "HLGT_0338",
    "AEHLGTCD": null,
    "AEBODSYS": "GENERAL DISORDERS AND ADMINISTRATION SITE CONDITIONS",
    "AEBDSYCD": null,
    "AESOC": "GENERAL DISORDERS AND ADMINISTRATION SITE CONDITIONS",
    "AESOCCD": null,
    "AESEV": "MILD",
    "AESER": "N",
    "AEACN": "",
    "AEREL": "PROBABLE",
    "AEOUT": "NOT RECOVERED/NOT RESOLVED",
    "AESCAN": "N",
    "AESCONG": "N",
    "AESDISAB": "N",
    "AESDTH": "N",
    "AESHOSP": "N",
    "AESLIFE": "N",
    "AESOD": "N",
    "AEDTC": "2013-09-05",
    "AESTDTC": "2013-08-25",
    "AEENDTC": "",
    "AESTDY": 3,
    "AEENDY": null,
    "AETRTEM": "Y",
    "ASTDT": "2013-08-25",
    "AENDT": null,
    "SITEID": "701",
    "TRT01P": "Xanomeline High Dose",
    "TRT01A": "Xanomeline High Dose",
    "TRT01PN": 2,
    "TRT01AN": 2,
    "TRTSDT": "2013-08-23",
    "TRTEDT": "2014-02-20",
    "AGE": 57,
    "AGEGR1": "<65",
    "SEX": "M",
    "RACE": "WHITE",
    "SAFFL": "Y",
    "ITTFL": "Y",
    "EFFFL": "Y",
    "TRTP": "Xanomeline High Dose",
    "TRTA": "Xanomeline High Dose",
    "TRTPN": 2,
    "TRTAN": 2,
    "TRTEMFL": "Y",
    "ASTDY": 3,
    "AENDY": null,
    "AESEVN": 1,
    "CQ01NAM": "DERMATOLOGICAL EVENTS",
    "AOCCFL": null,
    "AOCCSFL": null,
    "AOCCPFL": "Y"
  },
  {
    "STUDYID": "CDISCPILOT01",
    "DOMAIN": "AE",
    "USUBJID": "01-701-1148",
    "AESEQ": 6,
    "AESPID": "E25",
    "AETERM": "CALCULUS URETHRAL",
    "AELLT": "URETHRAL CALCULUS",
    "AELLTCD": null,
    "AEDECOD": "CALCULUS URETHRAL",
    "AEPTCD": null,
    "AEHLT": "HLT_0550",
    "AEHLTCD": null,
    "AEHLGT": "HLGT_0414",
    "AEHLGTCD": null,
    "AEBODSYS": "RENAL AND URINARY DISORDERS",
    "AEBDSYCD": null,
    "AESOC": "RENAL AND URINARY DISORDERS",
    "AESOCCD": null,
    "AESEV": "MODERATE",
    "AESER": "N",
    "AEACN": "",
    "AEREL": "NONE",
    "AEOUT": "RECOVERED/RESOLVED",
    "AESCAN": "N",
    "AESCONG": "N",
    "AESDISAB": "N",
    "AESDTH": "N",
    "AESHOSP": "N",
    "AESLIFE": "N",
    "AESOD": "N",
    "AEDTC": "2014-01-10",
    "AESTDTC": "2013-12-17",
    "AEENDTC": "2013-12-17",
    "AESTDY": 117,
    "AEENDY": 117,
    "AETRTEM": "Y",
    "ASTDT": "2013-12-17",
    "AENDT": "2013-12-17",
    "SITEID": "701",
    "TRT01P": "Xanomeline High Dose",
    "TRT01A": "Xanomeline High Dose",
    "TRT01PN": 2,
    "TRT01AN": 2,
    "TRTSDT": "2013-08-23",
    "TRTEDT": "2014-02-20",
    "AGE": 57,
    "AGEGR1": "<65",
    "SEX": "M",
    "RACE": "WHITE",
    "SAFFL": "Y",
    "ITTFL": "Y",
    "EFFFL": "Y",
    "TRTP": "Xanomeline High Dose",
    "TRTA": "Xanomeline High Dose",
    "TRTPN": 2,
    "TRTAN": 2,
    "TRTEMFL": "Y",
    "ASTDY": 117,
    "AENDY": 117,
    "AESEVN": 2,
    "CQ01NAM": null,
    "AOCCFL": null,
    "AOCCSFL": "Y",
    "AOCCPFL": "Y"
  },
  {
    "STUDYID": "CDISCPILOT01",
    "DOMAIN": "AE",
    "USUBJID": "01-701-1148",
    "AESEQ": 9,
    "AESPID": "E26",
    "AETERM": "DEPRESSED MOOD",
    "AELLT": "DEPRESSED MOOD",
    "AELLTCD": null,
    "AEDECOD": "DEPRESSED MOOD",
    "AEPTCD": null,
    "AEHLT": "HLT_0784",
    "AEHLTCD": null,
    "AEHLGT": "HLGT_0122",
    "AEHLGTCD": null,
    "AEBODSYS": "PSYCHIATRIC DISORDERS",
    "AEBDSYCD": null,
    "AESOC": "PSYCHIATRIC DISORDERS",
    "AESOCCD": null,
    "AESEV": "MODERATE",
    "AESER": "N",
    "AEACN": "",
    "AEREL": "NONE",
    "AEOUT": "NOT RECOVERED/NOT RESOLVED",
    "AESCAN": "N",
    "AESCONG": "N",
    "AESDISAB": "N",
    "AESDTH": "N",
    "AESHOSP": "N",
    "AESLIFE": "N",
    "AESOD": "N",
    "AEDTC": "2014-02-08",
    "AESTDTC": "2013-07-29",
    "AEENDTC": "",
    "AESTDY": -25,
    "AEENDY": null,
    "AETRTEM": "N",
    "ASTDT": "2013-07-29",
    "AENDT": null,
    "SITEID": "701",
    "TRT01P": "Xanomeline High Dose",
    "TRT01A": "Xanomeline High Dose",
    "TRT01PN": 2,
    "TRT01AN": 2,
    "TRTSDT": "2013-08-23",
    "TRTEDT": "2014-02-20",
    "AGE": 57,
    "AGEGR1": "<65",
    "SEX": "M",
    "RACE": "WHITE",
    "SAFFL": "Y",
    "ITTFL": "Y",
    "EFFFL": "Y",
    "TRTP": "Xanomeline High Dose",
    "TRTA": "Xanomeline High Dose",
    "TRTPN": 2,
    "TRTAN": 2,
    "TRTEMFL": null,
    "ASTDY": -25,
    "AENDY": null,
    "AESEVN": 2,
    "CQ01NAM": null,
    "AOCCFL": null,
    "AOCCSFL": null,
    "AOCCPFL": null
  },
  {
    "STUDYID": "CDISCPILOT01",
    "DOMAIN": "AE",
    "USUBJID": "01-701-1148",
    "AESEQ": 8,
    "AESPID": "E03",
    "AETERM": "DYSPEPSIA",
    "AELLT": "INDIGESTION",
    "AELLTCD": null,
    "AEDECOD": "DYSPEPSIA",
    "AEPTCD": null,
    "AEHLT": "HLT_0244",
    "AEHLTCD": null,
    "AEHLGT": "HLGT_0716",
    "AEHLGTCD": null,
    "AEBODSYS": "GASTROINTESTINAL DISORDERS",
    "AEBDSYCD": null,
    "AESOC": "GASTROINTESTINAL DISORDERS",
    "AESOCCD": null,
    "AESEV": "MODERATE",
    "AESER": "N",
    "AEACN": "",
    "AEREL": "NONE",
    "AEOUT": "NOT RECOVERED/NOT RESOLVED",
    "AESCAN": "N",
    "AESCONG": "N",
    "AESDISAB": "N",
    "AESDTH": "N",
    "AESHOSP": "N",
    "AESLIFE": "N",
    "AESOD": "N",
    "AEDTC": "2014-02-08",
    "AESTDTC": "2012-02",
    "AEENDTC": "",
    "AESTDY": null,
    "AEENDY": null,
    "AETRTEM": "N",
    "ASTDT": null,
    "AENDT": null,
    "SITEID": "701",
    "TRT01P": "Xanomeline High Dose",
    "TRT01A": "Xanomeline High Dose",
    "TRT01PN": 2,
    "TRT01AN": 2,
    "TRTSDT": "2013-08-23",
    "TRTEDT": "2014-02-20",
    "AGE": 57,
    "AGEGR1": "<65",
    "SEX": "M",
    "RACE": "WHITE",
    "SAFFL": "Y",
    "ITTFL": "Y",
    "EFFFL": "Y",
    "TRTP": "Xanomeline High Dose",
    "TRTA": "Xanomeline High Dose",
    "TRTPN": 2,
    "TRTAN": 2,
    "TRTEMFL": null,
    "ASTDY": null,
    "AENDY": null,
    "AESEVN": 2,
    "CQ01NAM": null,
    "AOCCFL": null,
    "AOCCSFL": null,
    "AOCCPFL": null
  },
  {
    "STUDYID": "CDISCPILOT01",
    "DOMAIN": "AE",
    "USUBJID": "01-701-1148",
    "AESEQ": 7,
    "AESPID": "E28",
    "AETERM": "EPISTAXIS",
    "AELLT": "NOSE BLEED",
    "AELLTCD": null,
    "AEDECOD": "EPISTAXIS",
    "AEPTCD": null,
    "AEHLT": "HLT_0386",
    "AEHLTCD": null,
    "AEHLGT": "HLGT_0577",
    "AEHLGTCD": null,
    "AEBODSYS": "RESPIRATORY, THORACIC AND MEDIASTINAL DISORDERS",
    "AEBDSYCD": null,
    "AESOC": "RESPIRATORY, THORACIC AND MEDIASTINAL DISORDERS",
    "AESOCCD": null,
    "AESEV": "MILD",
    "AESER": "N",
    "AEACN": "",
    "AEREL": "NONE",
    "AEOUT": "RECOVERED/RESOLVED",
    "AESCAN": "N",
    "AESCONG": "N",
    "AESDISAB": "N",
    "AESDTH": "N",
    "AESHOSP": "N",
    "AESLIFE": "N",
    "AESOD": "N",
    "AEDTC": "2014-01-10",
    "AESTDTC": "2014-01-03",
    "AEENDTC": "2014-01-03",
    "AESTDY": 134,
    "AEENDY": 134,
    "AETRTEM": "Y",
    "ASTDT": "2014-01-03",
    "AENDT": "2014-01-03",
    "SITEID": "701",
    "TRT01P": "Xanomeline High Dose",
    "TRT01A": "Xanomeline High Dose",
    "TRT01PN": 2,
    "TRT01AN": 2,
    "TRTSDT": "2013-08-23",
    "TRTEDT": "2014-02-20",
    "AGE": 57,
    "AGEGR1": "<65",
    "SEX": "M",
    "RACE": "WHITE",
    "SAFFL": "Y",
    "ITTFL": "Y",
    "EFFFL": "Y",
    "TRTP": "Xanomeline High Dose",
    "TRTA": "Xanomeline High Dose",
    "TRTPN": 2,
    "TRTAN": 2,
    "TRTEMFL": "Y",
    "ASTDY": 134,
    "AENDY": 134,
    "AESEVN": 1,
    "CQ01NAM": null,
    "AOCCFL": null,
    "AOCCSFL": "Y",
    "AOCCPFL": "Y"
  },
  {
    "STUDYID": "CDISCPILOT01",
    "DOMAIN": "AE",
    "USUBJID": "01-701-1148",
    "AESEQ": 5,
    "AESPID": "E24",
    "AETERM": "FLANK PAIN",
    "AELLT": "FLANK PAIN",
    "AELLTCD": null,
    "AEDECOD": "FLANK PAIN",
    "AEPTCD": null,
    "AEHLT": "HLT_0484",
    "AEHLTCD": null,
    "AEHLGT": "HLGT_0543",
    "AEHLGTCD": null,
    "AEBODSYS": "MUSCULOSKELETAL AND CONNECTIVE TISSUE DISORDERS",
    "AEBDSYCD": null,
    "AESOC": "MUSCULOSKELETAL AND CONNECTIVE TISSUE DISORDERS",
    "AESOCCD": null,
    "AESEV": "MODERATE",
    "AESER": "N",
    "AEACN": "",
    "AEREL": "NONE",
    "AEOUT": "RECOVERED/RESOLVED",
    "AESCAN": "N",
    "AESCONG": "N",
    "AESDISAB": "N",
    "AESDTH": "N",
    "AESHOSP": "N",
    "AESLIFE": "N",
    "AESOD": "N",
    "AEDTC": "2014-01-10",
    "AESTDTC": "2013-12-15",
    "AEENDTC": "2013-12-17",
    "AESTDY": 115,
    "AEENDY": 117,
    "AETRTEM": "Y",
    "ASTDT": "2013-12-15",
    "AENDT": "2013-12-17",
    "SITEID": "701",
    "TRT01P": "Xanomeline High Dose",
    "TRT01A": "Xanomeline High Dose",
    "TRT01PN": 2,
    "TRT01AN": 2,
    "TRTSDT": "2013-08-23",
    "TRTEDT": "2014-02-20",
    "AGE": 57,
    "AGEGR1": "<65",
    "SEX": "M",
    "RACE": "WHITE",
    "SAFFL": "Y",
    "ITTFL": "Y",
    "EFFFL": "Y",
    "TRTP": "Xanomeline High Dose",
    "TRTA": "Xanomeline High Dose",
    "TRTPN": 2,
    "TRTAN": 2,
    "TRTEMFL": "Y",
    "ASTDY": 115,
    "AENDY": 117,
    "AESEVN": 2,
    "CQ01NAM": null,
    "AOCCFL": null,
    "AOCCSFL": "Y",
    "AOCCPFL": "Y"
  },
  {
    "STUDYID": "CDISCPILOT01",
    "DOMAIN": "AE",
    "USUBJID": "01-701-1148",
    "AESEQ": 3,
    "AESPID": "E23",
    "AETERM": "LOWER RESPIRATORY TRACT INFECTION",
    "AELLT": "CHEST COLD",
    "AELLTCD": null,
    "AEDECOD": "LOWER RESPIRATORY TRACT INFECTION",
    "AEPTCD": null,
    "AEHLT": "HLT_0052",
    "AEHLTCD": null,
    "AEHLGT": "HLGT_0217",
    "AEHLGTCD": null,
    "AEBODSYS": "INFECTIONS AND INFESTATIONS",
    "AEBDSYCD": null,
    "AESOC": "INFECTIONS AND INFESTATIONS",
    "AESOCCD": null,
    "AESEV": "MODERATE",
    "AESER": "N",
    "AEACN": "",
    "AEREL": "NONE",
    "AEOUT": "NOT RECOVERED/NOT RESOLVED",
    "AESCAN": "N",
    "AESCONG": "N",
    "AESDISAB": "N",
    "AESDTH": "N",
    "AESHOSP": "N",
    "AESLIFE": "N",
    "AESOD": "N",
    "AEDTC": "2013-10-18",
    "AESTDTC": "2013-10-12",
    "AEENDTC": "2013-11-10",
    "AESTDY": 51,
    "AEENDY": 80,
    "AETRTEM": "Y",
    "ASTDT": "2013-10-12",
    "AENDT": "2013-11-10",
    "SITEID": "701",
    "TRT01P": "Xanomeline High Dose",
    "TRT01A": "Xanomeline High Dose",
    "TRT01PN": 2,
    "TRT01AN": 2,
    "TRTSDT": "2013-08-23",
    "TRTEDT": "2014-02-20",
    "AGE": 57,
    "AGEGR1": "<65",
    "SEX": "M",
    "RACE": "WHITE",
    "SAFFL": "Y",
    "ITTFL": "Y",
    "EFFFL": "Y",
    "TRTP": "Xanomeline High Dose",
    "TRTA": "Xanomeline High Dose",
    "TRTPN": 2,
    "TRTAN": 2,
    "TRTEMFL": "Y",
    "ASTDY": 51,
    "AENDY": 80,
    "AESEVN": 2,
    "CQ01NAM": null,
    "AOCCFL": null,
    "AOCCSFL": "Y",
    "AOCCPFL": "Y"
  },
  {
    "STUDYID": "CDISCPILOT01",
    "DOMAIN": "AE",
    "USUBJID": "01-701-1148",
    "AESEQ": 4,
    "AESPID": "E23",
    "AETERM": "LOWER RESPIRATORY TRACT INFECTION",
    "AELLT": "CHEST COLD",
    "AELLTCD": null,
    "AEDECOD": "LOWER RESPIRATORY TRACT INFECTION",
    "AEPTCD": null,
    "AEHLT": "HLT_0052",
    "AEHLTCD": null,
    "AEHLGT": "HLGT_0217",
    "AEHLGTCD": null,
    "AEBODSYS": "INFECTIONS AND INFESTATIONS",
    "AEBDSYCD": null,
    "AESOC": "INFECTIONS AND INFESTATIONS",
    "AESOCCD": null,
    "AESEV": "MODERATE",
    "AESER": "N",
    "AEACN": "",
    "AEREL": "NONE",
    "AEOUT": "RECOVERED/RESOLVED",
    "AESCAN": "N",
    "AESCONG": "N",
    "AESDISAB": "N",
    "AESDTH": "N",
    "AESHOSP": "N",
    "AESLIFE": "N",
    "AESOD": "N",
    "AEDTC": "2013-11-17",
    "AESTDTC": "2013-10-12",
    "AEENDTC": "2013-11-10",
    "AESTDY": 51,
    "AEENDY": 80,
    "AETRTEM": "Y",
    "ASTDT": "2013-10-12",
    "AENDT": "2013-11-10",
    "SITEID": "701",
    "TRT01P": "Xanomeline High Dose",
    "TRT01A": "Xanomeline High Dose",
    "TRT01PN": 2,
    "TRT01AN": 2,
    "TRTSDT": "2013-08-23",
    "TRTEDT": "2014-02-20",
    "AGE": 57,
    "AGEGR1": "<65",
    "SEX": "M",
    "RACE": "WHITE",
    "SAFFL": "Y",
    "ITTFL": "Y",
    "EFFFL": "Y",
    "TRTP": "Xanomeline High Dose",
    "TRTA": "Xanomeline High Dose",
    "TRTPN": 2,
    "TRTAN": 2,
    "TRTEMFL": "Y",
    "ASTDY": 51,
    "AENDY": 80,
    "AESEVN": 2,
    "CQ01NAM": null,
    "AOCCFL": null,
    "AOCCSFL": null,
    "AOCCPFL": null
  },
  {
    "STUDYID": "CDISCPILOT01",
    "DOMAIN": "AE",
    "USUBJID": "01-701-1153",
    "AESEQ": 1,
    "AESPID": "E06",
    "AETERM": "INCREASED APPETITE",
    "AELLT": "INCREASED APPETITE",
    "AELLTCD": null,
    "AEDECOD": "INCREASED APPETITE",
    "AEPTCD": null,
    "AEHLT": "HLT_0566",
    "AEHLTCD": null,
    "AEHLGT": "HLGT_0769",
    "AEHLGTCD": null,
    "AEBODSYS": "METABOLISM AND NUTRITION DISORDERS",
    "AEBDSYCD": null,
    "AESOC": "METABOLISM AND NUTRITION DISORDERS",
    "AESOCCD": null,
    "AESEV": "MILD",
    "AESER": "N",
    "AEACN": "",
    "AEREL": "POSSIBLE",
    "AEOUT": "NOT RECOVERED/NOT RESOLVED",
    "AESCAN": "N",
    "AESCONG": "N",
    "AESDISAB": "N",
    "AESDTH": "N",
    "AESHOSP": "N",
    "AESLIFE": "N",
    "AESOD": "N",
    "AEDTC": "2013-10-19",
    "AESTDTC": "2013-10-13",
    "AEENDTC": "2013-11-06",
    "AESTDY": 21,
    "AEENDY": 45,
    "AETRTEM": "Y",
    "ASTDT": "2013-10-13",
    "AENDT": "2013-11-06",
    "SITEID": "701",
    "TRT01P": "Placebo",
    "TRT01A": "Placebo",
    "TRT01PN": 0,
    "TRT01AN": 0,
    "TRTSDT": "2013-09-23",
    "TRTEDT": "2014-03-16",
    "AGE": 79,
    "AGEGR1": "65-80",
    "SEX": "F",
    "RACE": "WHITE",
    "SAFFL": "Y",
    "ITTFL": "Y",
    "EFFFL": "Y",
    "TRTP": "Placebo",
    "TRTA": "Placebo",
    "TRTPN": 0,
    "TRTAN": 0,
    "TRTEMFL": "Y",
    "ASTDY": 21,
    "AENDY": 45,
    "AESEVN": 1,
    "CQ01NAM": null,
    "AOCCFL": "Y",
    "AOCCSFL": "Y",
    "AOCCPFL": "Y"
  },
  {
    "STUDYID": "CDISCPILOT01",
    "DOMAIN": "AE",
    "USUBJID": "01-701-1153",
    "AESEQ": 2,
    "AESPID": "E06",
    "AETERM": "INCREASED APPETITE",
    "AELLT": "INCREASED APPETITE",
    "AELLTCD": null,
    "AEDECOD": "INCREASED APPETITE",
    "AEPTCD": null,
    "AEHLT": "HLT_0566",
    "AEHLTCD": null,
    "AEHLGT": "HLGT_0769",
    "AEHLGTCD": null,
    "AEBODSYS": "METABOLISM AND NUTRITION DISORDERS",
    "AEBDSYCD": null,
    "AESOC": "METABOLISM AND NUTRITION DISORDERS",
    "AESOCCD": null,
    "AESEV": "MILD",
    "AESER": "N",
    "AEACN": "",
    "AEREL": "POSSIBLE",
    "AEOUT": "RECOVERED/RESOLVED",
    "AESCAN": "N",
    "AESCONG": "N",
    "AESDISAB": "N",
    "AESDTH": "N",
    "AESHOSP": "N",
    "AESLIFE": "N",
    "AESOD": "N",
    "AEDTC": "2013-11-18",
    "AESTDTC": "2013-10-13",
    "AEENDTC": "2013-11-06",
    "AESTDY": 21,
    "AEENDY": 45,
    "AETRTEM": "Y",
    "ASTDT": "2013-10-13",
    "AENDT": "2013-11-06",
    "SITEID": "701",
    "TRT01P": "Placebo",
    "TRT01A": "Placebo",
    "TRT01PN": 0,
    "TRT01AN": 0,
    "TRTSDT": "2013-09-23",
    "TRTEDT": "2014-03-16",
    "AGE": 79,
    "AGEGR1": "65-80",
    "SEX": "F",
    "RACE": "WHITE",
    "SAFFL": "Y",
    "ITTFL": "Y",
    "EFFFL": "Y",
    "TRTP": "Placebo",
    "TRTA": "Placebo",
    "TRTPN": 0,
    "TRTAN": 0,
    "TRTEMFL": "Y",
    "ASTDY": 21,
    "AENDY": 45,
    "AESEVN": 1,
    "CQ01NAM": null,
    "AOCCFL": null,
    "AOCCSFL": null,
    "AOCCPFL": null
  },
  {
    "STUDYID": "CDISCPILOT01",
    "DOMAIN": "AE",
    "USUBJID": "01-701-1180",
    "AESEQ": 9,
    "AESPID": "E07",
    "AETERM": "APPLICATION SITE ERYTHEMA",
    "AELLT": "APPLICATION SITE ERYTHEMA",
    "AELLTCD": null,
    "AEDECOD": "APPLICATION SITE ERYTHEMA",
    "AEPTCD": null,
    "AEHLT": "HLT_0617",
    "AEHLTCD": null,
    "AEHLGT": "HLGT_0152",
    "AEHLGTCD": null,
    "AEBODSYS": "GENERAL DISORDERS AND ADMINISTRATION SITE CONDITIONS",
    "AEBDSYCD": null,
    "AESOC": "GENERAL DISORDERS AND ADMINISTRATION SITE CONDITIONS",
    "AESOCCD": null,
    "AESEV": "MODERATE",
    "AESER": "N",
    "AEACN": "",
    "AEREL": "POSSIBLE",
    "AEOUT": "NOT RECOVERED/NOT RESOLVED",
    "AESCAN": "N",
    "AESCONG": "N",
    "AESDISAB": "N",
    "AESDTH": "N",
    "AESHOSP": "N",
    "AESLIFE": "N",
    "AESOD": "N",
    "AEDTC": "2013-03-23",
    "AESTDTC": "2013-03-19",
    "AEENDTC": "",
    "AESTDY": 36,
    "AEENDY": null,
    "AETRTEM": "Y",
    "ASTDT": "2013-03-19",
    "AENDT": null,
    "SITEID": "701",
    "TRT01P": "Xanomeline High Dose",
    "TRT01A": "Xanomeline High Dose",
    "TRT01PN": 2,
    "TRT01AN": 2,
    "TRTSDT": "2013-02-12",
    "TRTEDT": "2013-03-18",
    "AGE": 56,
    "AGEGR1": "<65",
    "SEX": "M",
    "RACE": "WHITE",
    "SAFFL": "Y",
    "ITTFL": "Y",
    "EFFFL": "Y",
    "TRTP": "Xanomeline High Dose",
    "TRTA": "Xanomeline High Dose",
    "TRTPN": 2,
    "TRTAN": 2,
    "TRTEMFL": "Y",
    "ASTDY": 36,
    "AENDY": null,
    "AESEVN": 2,
    "CQ01NAM": "DERMATOLOGICAL EVENTS",
    "AOCCFL": null,
    "AOCCSFL": null,
    "AOCCPFL": "Y"
  },
  {
    "STUDYID": "CDISCPILOT01",
    "DOMAIN": "AE",
    "USUBJID": "01-701-1180",
    "AESEQ": 8,
    "AESPID": "E06",
    "AETERM": "APPLICATION SITE PRURITUS",
    "AELLT": "APPLICATION SITE ITCHING",
    "AELLTCD": null,
    "AEDECOD": "APPLICATION SITE PRURITUS",
    "AEPTCD": null,
    "AEHLT": "HLT_0317",
    "AEHLTCD": null,
    "AEHLGT": "HLGT_0338",
    "AEHLGTCD": null,
    "AEBODSYS": "GENERAL DISORDERS AND ADMINISTRATION SITE CONDITIONS",
    "AEBDSYCD": null,
    "AESOC": "GENERAL DISORDERS AND ADMINISTRATION SITE CONDITIONS",
    "AESOCCD": null,
    "AESEV": "MODERATE",
    "AESER": "N",
    "AEACN": "",
    "AEREL": "POSSIBLE",
    "AEOUT": "NOT RECOVERED/NOT RESOLVED",
    "AESCAN": "N",
    "AESCONG": "N",
    "AESDISAB": "N",
    "AESDTH": "N",
    "AESHOSP": "N",
    "AESLIFE": "N",
    "AESOD": "N",
    "AEDTC": "2013-03-23",
    "AESTDTC": "2013-03-19",
    "AEENDTC": "",
    "AESTDY": 36,
    "AEENDY": null,
    "AETRTEM": "Y",
    "ASTDT": "2013-03-19",
    "AENDT": null,
    "SITEID": "701",
    "TRT01P": "Xanomeline High Dose",
    "TRT01A": "Xanomeline High Dose",
    "TRT01PN": 2,
    "TRT01AN": 2,
    "TRTSDT": "2013-02-12",
    "TRTEDT": "2013-03-18",
    "AGE": 56,
    "AGEGR1": "<65",
    "SEX": "M",
    "RACE": "WHITE",
    "SAFFL": "Y",
    "ITTFL": "Y",
    "EFFFL": "Y",
    "TRTP": "Xanomeline High Dose",
    "TRTA": "Xanomeline High Dose",
    "TRTPN": 2,
    "TRTAN": 2,
    "TRTEMFL": "Y",
    "ASTDY": 36,
    "AENDY": null,
    "AESEVN": 2,
    "CQ01NAM": "DERMATOLOGICAL EVENTS",
    "AOCCFL": null,
    "AOCCSFL": null,
    "AOCCPFL": "Y"
  },
  {
    "STUDYID": "CDISCPILOT01",
    "DOMAIN": "AE",
    "USUBJID": "01-701-1180",
    "AESEQ": 7,
    "AESPID": "E05",
    "AETERM": "APPLICATION SITE VESICLES",
    "AELLT": "APPLICATION SITE BLISTER",
    "AELLTCD": null,
    "AEDECOD": "APPLICATION SITE VESICLES",
    "AEPTCD": null,
    "AEHLT": "HLT_0180",
    "AEHLTCD": null,
    "AEHLGT": "HLGT_0576",
    "AEHLGTCD": null,
    "AEBODSYS": "GENERAL DISORDERS AND ADMINISTRATION SITE CONDITIONS",
    "AEBDSYCD": null,
    "AESOC": "GENERAL DISORDERS AND ADMINISTRATION SITE CONDITIONS",
    "AESOCCD": null,
    "AESEV": "MODERATE",
    "AESER": "N",
    "AEACN": "",
    "AEREL": "POSSIBLE",
    "AEOUT": "NOT RECOVERED/NOT RESOLVED",
    "AESCAN": "N",
    "AESCONG": "N",
    "AESDISAB": "N",
    "AESDTH": "N",
    "AESHOSP": "N",
    "AESLIFE": "N",
    "AESOD": "N",
    "AEDTC": "2013-03-23",
    "AESTDTC": "2013-03-19",
    "AEENDTC": "",
    "AESTDY": 36,
    "AEENDY": null,
    "AETRTEM": "Y",
    "ASTDT": "2013-03-19",
    "AENDT": null,
    "SITEID": "701",
    "TRT01P": "Xanomeline High Dose",
    "TRT01A": "Xanomeline High Dose",
    "TRT01PN": 2,
    "TRT01AN": 2,
    "TRTSDT": "2013-02-12",
    "TRTEDT": "2013-03-18",
    "AGE": 56,
    "AGEGR1": "<65",
    "SEX": "M",
    "RACE": "WHITE",
    "SAFFL": "Y",
    "ITTFL": "Y",
    "EFFFL": "Y",
    "TRTP": "Xanomeline High Dose",
    "TRTA": "Xanomeline High Dose",
    "TRTPN": 2,
    "TRTAN": 2,
    "TRTEMFL": "Y",
    "ASTDY": 36,
    "AENDY": null,
    "AESEVN": 2,
    "CQ01NAM": null,
    "AOCCFL": null,
    "AOCCSFL": "Y",
    "AOCCPFL": "Y"
  },
  {
    "STUDYID": "CDISCPILOT01",
    "DOMAIN": "AE",
    "USUBJID": "01-701-1180",
    "AESEQ": 4,
    "AESPID": "E04",
    "AETERM": "HEADACHE",
    "AELLT": "HEADACHE",
    "AELLTCD": null,
    "AEDECOD": "HEADACHE",
    "AEPTCD": null,
    "AEHLT": "HLT_0064",
    "AEHLTCD": null,
    "AEHLGT": "HLGT_0344",
    "AEHLGTCD": null,
    "AEBODSYS": "NERVOUS SYSTEM DISORDERS",
    "AEBDSYCD": null,
    "AESOC": "NERVOUS SYSTEM DISORDERS",
    "AESOCCD": null,
    "AESEV": "MODERATE",
    "AESER": "N",
    "AEACN": "",
    "AEREL": "NONE",
    "AEOUT": "NOT RECOVERED/NOT RESOLVED",
    "AESCAN": "N",
    "AESCONG": "N",
    "AESDISAB": "N",
    "AESDTH": "N",
    "AESHOSP": "N",
    "AESLIFE": "N",
    "AESOD": "N",
    "AEDTC": "2013-03-11",
    "AESTDTC": "2002",
    "AEENDTC": "",
    "AESTDY": null,
    "AEENDY": null,
    "AETRTEM": "N",
    "ASTDT": null,
    "AENDT": null,
    "SITEID": "701",
    "TRT01P": "Xanomeline High Dose",
    "TRT01A": "Xanomeline High Dose",
    "TRT01PN": 2,
    "TRT01AN": 2,
    "TRTSDT": "2013-02-12",
    "TRTEDT": "2013-03-18",
    "AGE": 56,
    "AGEGR1": "<65",
    "SEX": "M",
    "RACE": "WHITE",
    "SAFFL": "Y",
    "ITTFL": "Y",
    "EFFFL": "Y",
    "TRTP": "Xanomeline High Dose",
    "TRTA": "Xanomeline High Dose",
    "TRTPN": 2,
    "TRTAN": 2,
    "TRTEMFL": null,
    "ASTDY": null,
    "AENDY": null,
    "AESEVN": 2,
    "CQ01NAM": null,
    "AOCCFL": null,
    "AOCCSFL": null,
    "AOCCPFL": null
  },
  {
    "STUDYID": "CDISCPILOT01",
    "DOMAIN": "AE",
    "USUBJID": "01-701-1180",
    "AESEQ": 3,
    "AESPID": "E02",
    "AETERM": "MICTURITION URGENCY",
    "AELLT": "URINARY URGENCY",
    "AELLTCD": null,
    "AEDECOD": "MICTURITION URGENCY",
    "AEPTCD": null,
    "AEHLT": "HLT_0294",
    "AEHLTCD": null,
    "AEHLGT": "HLGT_0483",
    "AEHLGTCD": null,
    "AEBODSYS": "RENAL AND URINARY DISORDERS",
    "AEBDSYCD": null,
    "AESOC": "RENAL AND URINARY DISORDERS",
    "AESOCCD": null,
    "AESEV": "MILD",
    "AESER": "N",
    "AEACN": "",
    "AEREL": "POSSIBLE",
    "AEOUT": "NOT RECOVERED/NOT RESOLVED",
    "AESCAN": "N",
    "AESCONG": "N",
    "AESDISAB": "N",
    "AESDTH": "N",
    "AESHOSP": "N",
    "AESLIFE": "N",
    "AESOD": "N",
    "AEDTC": "2013-02-25",
    "AESTDTC": "2013-02-15",
    "AEENDTC": "2013-03-19",
    "AESTDY": 4,
    "AEENDY": 36,
    "AETRTEM": "Y",
    "ASTDT": "2013-02-15",
    "AENDT": "2013-03-19",
    "SITEID": "701",
    "TRT01P": "Xanomeline High Dose",
    "TRT01A": "Xanomeline High Dose",
    "TRT01PN": 2,
    "TRT01AN": 2,
    "TRTSDT": "2013-02-12",
    "TRTEDT": "2013-03-18",
    "AGE": 56,
    "AGEGR1": "<65",
    "SEX": "M",
    "RACE": "WHITE",
    "SAFFL": "Y",
    "ITTFL": "Y",
    "EFFFL": "Y",
    "TRTP": "Xanomeline High Dose",
    "TRTA": "Xanomeline High Dose",
    "TRTPN": 2,
    "TRTAN": 2,
    "TRTEMFL": "Y",
    "ASTDY": 4,
    "AENDY": 36,
    "AESEVN": 1,
    "CQ01NAM": null,
    "AOCCFL": null,
    "AOCCSFL": "Y",
    "AOCCPFL": "Y"
  },
  {
    "STUDYID": "CDISCPILOT01",
    "DOMAIN": "AE",
    "USUBJID": "01-701-1180",
    "AESEQ": 6,
    "AESPID": "E02",
    "AETERM": "MICTURITION URGENCY",
    "AELLT": "URINARY URGENCY",
    "AELLTCD": null,
    "AEDECOD": "MICTURITION URGENCY",
    "AEPTCD": null,
    "AEHLT": "HLT_0294",
    "AEHLTCD": null,
    "AEHLGT": "HLGT_0483",
    "AEHLGTCD": null,
    "AEBODSYS": "RENAL AND URINARY DISORDERS",
    "AEBDSYCD": null,
    "AESOC": "RENAL AND URINARY DISORDERS",
    "AESOCCD": null,
    "AESEV": "MILD",
    "AESER": "N",
    "AEACN": "",
    "AEREL": "POSSIBLE",
    "AEOUT": "RECOVERED/RESOLVED",
    "AESCAN": "N",
    "AESCONG": "N",
    "AESDISAB": "N",
    "AESDTH": "N",
    "AESHOSP": "N",
    "AESLIFE": "N",
    "AESOD": "N",
    "AEDTC": "2013-03-23",
    "AESTDTC": "2013-02-15",
    "AEENDTC": "2013-03-19",
    "AESTDY": 4,
    "AEENDY": 36,
    "AETRTEM": "Y",
    "ASTDT": "2013-02-15",
    "AENDT": "2013-03-19",
    "SITEID": "701",
    "TRT01P": "Xanomeline High Dose",
    "TRT01A": "Xanomeline High Dose",
    "TRT01PN": 2,
    "TRT01AN": 2,
    "TRTSDT": "2013-02-12",
    "TRTEDT": "2013-03-18",
    "AGE": 56,
    "AGEGR1": "<65",
    "SEX": "M",
    "RACE": "WHITE",
    "SAFFL": "Y",
    "ITTFL": "Y",
    "EFFFL": "Y",
    "TRTP": "Xanomeline High Dose",
    "TRTA": "Xanomeline High Dose",
    "TRTPN": 2,
    "TRTAN": 2,
    "TRTEMFL": "Y",
    "ASTDY": 4,
    "AENDY": 36,
    "AESEVN": 1,
    "CQ01NAM": null,
    "AOCCFL": null,
    "AOCCSFL": null,
    "AOCCPFL": null
  },
  {
    "STUDYID": "CDISCPILOT01",
    "DOMAIN": "AE",
    "USUBJID": "01-701-1180",
    "AESEQ": 5,
    "AESPID": "E03",
    "AETERM": "NASOPHARYNGITIS",
    "AELLT": "COLD",
    "AELLTCD": null,
    "AEDECOD": "NASOPHARYNGITIS",
    "AEPTCD": null,
    "AEHLT": "HLT_0036",
    "AEHLTCD": null,
    "AEHLGT": "HLGT_0709",
    "AEHLGTCD": null,
    "AEBODSYS": "INFECTIONS AND INFESTATIONS",
    "AEBDSYCD": null,
    "AESOC": "INFECTIONS AND INFESTATIONS",
    "AESOCCD": null,
    "AESEV": "MILD",
    "AESER": "N",
    "AEACN": "",
    "AEREL": "NONE",
    "AEOUT": "RECOVERED/RESOLVED",
    "AESCAN": "N",
    "AESCONG": "N",
    "AESDISAB": "N",
    "AESDTH": "N",
    "AESHOSP": "N",
    "AESLIFE": "N",
    "AESOD": "N",
    "AEDTC": "2013-03-11",
    "AESTDTC": "2013-03-06",
    "AEENDTC": "2013-03-07",
    "AESTDY": 23,
    "AEENDY": 24,
    "AETRTEM": "Y",
    "ASTDT": "2013-03-06",
    "AENDT": "2013-03-07",
    "SITEID": "701",
    "TRT01P": "Xanomeline High Dose",
    "TRT01A": "Xanomeline High Dose",
    "TRT01PN": 2,
    "TRT01AN": 2,
    "TRTSDT": "2013-02-12",
    "TRTEDT": "2013-03-18",
    "AGE": 56,
    "AGEGR1": "<65",
    "SEX": "M",
    "RACE": "WHITE",
    "SAFFL": "Y",
    "ITTFL": "Y",
    "EFFFL": "Y",
    "TRTP": "Xanomeline High Dose",
    "TRTA": "Xanomeline High Dose",
    "TRTPN": 2,
    "TRTAN": 2,
    "TRTEMFL": "Y",
    "ASTDY": 23,
    "AENDY": 24,
    "AESEVN": 1,
    "CQ01NAM": null,
    "AOCCFL": null,
    "AOCCSFL": "Y",
    "AOCCPFL": "Y"
  },
  {
    "STUDYID": "CDISCPILOT01",
    "DOMAIN": "AE",
    "USUBJID": "01-701-1180",
    "AESEQ": 1,
    "AESPID": "E01",
    "AETERM": "VOMITING",
    "AELLT": "VOMITING",
    "AELLTCD": null,
    "AEDECOD": "VOMITING",
    "AEPTCD": null,
    "AEHLT": "HLT_0016",
    "AEHLTCD": null,
    "AEHLGT": "HLGT_0350",
    "AEHLGTCD": null,
    "AEBODSYS": "GASTROINTESTINAL DISORDERS",
    "AEBDSYCD": null,
    "AESOC": "GASTROINTESTINAL DISORDERS",
    "AESOCCD": null,
    "AESEV": "MILD",
    "AESER": "N",
    "AEACN": "",
    "AEREL": "NONE",
    "AEOUT": "NOT RECOVERED/NOT RESOLVED",
    "AESCAN": "N",
    "AESCONG": "N",
    "AESDISAB": "N",
    "AESDTH": "N",
    "AESHOSP": "N",
    "AESLIFE": "N",
    "AESOD": "N",
    "AEDTC": "2013-02-12",
    "AESTDTC": "2013-02-12",
    "AEENDTC": "2013-02-12",
    "AESTDY": 1,
    "AEENDY": 1,
    "AETRTEM": "Y",
    "ASTDT": "2013-02-12",
    "AENDT": "2013-02-12",
    "SITEID": "701",
    "TRT01P": "Xanomeline High Dose",
    "TRT01A": "Xanomeline High Dose",
    "TRT01PN": 2,
    "TRT01AN": 2,
    "TRTSDT": "2013-02-12",
    "TRTEDT": "2013-03-18",
    "AGE": 56,
    "AGEGR1": "<65",
    "SEX": "M",
    "RACE": "WHITE",
    "SAFFL": "Y",
    "ITTFL": "Y",
    "EFFFL": "Y",
    "TRTP": "Xanomeline High Dose",
    "TRTA": "Xanomeline High Dose",
    "TRTPN": 2,
    "TRTAN": 2,
    "TRTEMFL": "Y",
    "ASTDY": 1,
    "AENDY": 1,
    "AESEVN": 1,
    "CQ01NAM": null,
    "AOCCFL": "Y",
    "AOCCSFL": "Y",
    "AOCCPFL": "Y"
  },
  {
    "STUDYID": "CDISCPILOT01",
    "DOMAIN": "AE",
    "USUBJID": "01-701-1180",
    "AESEQ": 2,
    "AESPID": "E01",
    "AETERM": "VOMITING",
    "AELLT": "VOMITING",
    "AELLTCD": null,
    "AEDECOD": "VOMITING",
    "AEPTCD": null,
    "AEHLT": "HLT_0016",
    "AEHLTCD": null,
    "AEHLGT": "HLGT_0350",
    "AEHLGTCD": null,
    "AEBODSYS": "GASTROINTESTINAL DISORDERS",
    "AEBDSYCD": null,
    "AESOC": "GASTROINTESTINAL DISORDERS",
    "AESOCCD": null,
    "AESEV": "MILD",
    "AESER": "N",
    "AEACN": "",
    "AEREL": "NONE",
    "AEOUT": "RECOVERED/RESOLVED",
    "AESCAN": "N",
    "AESCONG": "N",
    "AESDISAB": "N",
    "AESDTH": "N",
    "AESHOSP": "N",
    "AESLIFE": "N",
    "AESOD": "N",
    "AEDTC": "2013-02-25",
    "AESTDTC": "2013-02-12",
    "AEENDTC": "2013-02-12",
    "AESTDY": 1,
    "AEENDY": 1,
    "AETRTEM": "Y",
    "ASTDT": "2013-02-12",
    "AENDT": "2013-02-12",
    "SITEID": "701",
    "TRT01P": "Xanomeline High Dose",
    "TRT01A": "Xanomeline High Dose",
    "TRT01PN": 2,
    "TRT01AN": 2,
    "TRTSDT": "2013-02-12",
    "TRTEDT": "2013-03-18",
    "AGE": 56,
    "AGEGR1": "<65",
    "SEX": "M",
    "RACE": "WHITE",
    "SAFFL": "Y",
    "ITTFL": "Y",
    "EFFFL": "Y",
    "TRTP": "Xanomeline High Dose",
    "TRTA": "Xanomeline High Dose",
    "TRTPN": 2,
    "TRTAN": 2,
    "TRTEMFL": "Y",
    "ASTDY": 1,
    "AENDY": 1,
    "AESEVN": 1,
    "CQ01NAM": null,
    "AOCCFL": null,
    "AOCCSFL": null,
    "AOCCPFL": null
  },
  {
    "STUDYID": "CDISCPILOT01",
    "DOMAIN": "AE",
    "USUBJID": "01-701-1181",
    "AESEQ": 1,
    "AESPID": "E16",
    "AETERM": "AGITATION",
    "AELLT": "AGITATION",
    "AELLTCD": null,
    "AEDECOD": "AGITATION",
    "AEPTCD": null,
    "AEHLT": "HLT_0140",
    "AEHLTCD": null,
    "AEHLGT": "HLGT_0170",
    "AEHLGTCD": null,
    "AEBODSYS": "PSYCHIATRIC DISORDERS",
    "AEBDSYCD": null,
    "AESOC": "PSYCHIATRIC DISORDERS",
    "AESOCCD": null,
    "AESEV": "MODERATE",
    "AESER": "N",
    "AEACN": "",
    "AEREL": "NONE",
    "AEOUT": "RECOVERED/RESOLVED",
    "AESCAN": "N",
    "AESCONG": "N",
    "AESDISAB": "N",
    "AESDTH": "N",
    "AESHOSP": "N",
    "AESLIFE": "N",
    "AESOD": "N",
    "AEDTC": "2013-12-12",
    "AESTDTC": "2013-12-09",
    "AEENDTC": "2013-12-09",
    "AESTDY": 5,
    "AEENDY": 5,
    "AETRTEM": "Y",
    "ASTDT": "2013-12-09",
    "AENDT": "2013-12-09",
    "SITEID": "701",
    "TRT01P": "Xanomeline High Dose",
    "TRT01A": "Xanomeline Low Dose",
    "TRT01PN": 2,
    "TRT01AN": 1,
    "TRTSDT": "2013-12-05",
    "TRTEDT": "2013-12-09",
    "AGE": 79,
    "AGEGR1": "65-80",
    "SEX": "F",
    "RACE": "WHITE",
    "SAFFL": "Y",
    "ITTFL": "Y",
    "EFFFL": "Y",
    "TRTP": "Xanomeline High Dose",
    "TRTA": "Xanomeline Low Dose",
    "TRTPN": 2,
    "TRTAN": 1,
    "TRTEMFL": "Y",
    "ASTDY": 5,
    "AENDY": 5,
    "AESEVN": 2,
    "CQ01NAM": null,
    "AOCCFL": "Y",
    "AOCCSFL": "Y",
    "AOCCPFL": "Y"
  },
  {
    "STUDYID": "CDISCPILOT01",
    "DOMAIN": "AE",
    "USUBJID": "01-701-1188",
    "AESEQ": 7,
    "AESPID": "E09",
    "AETERM": "APPLICATION SITE URTICARIA",
    "AELLT": "APPLICATION SITE URTICARIA",
    "AELLTCD": null,
    "AEDECOD": "APPLICATION SITE URTICARIA",
    "AEPTCD": null,
    "AEHLT": "HLT_0196",
    "AEHLTCD": null,
    "AEHLGT": "HLGT_0233",
    "AEHLGTCD": null,
    "AEBODSYS": "GENERAL DISORDERS AND ADMINISTRATION SITE CONDITIONS",
    "AEBDSYCD": null,
    "AESOC": "GENERAL DISORDERS AND ADMINISTRATION SITE CONDITIONS",
    "AESOCCD": null,
    "AESEV": "MILD",
    "AESER": "N",
    "AEACN": "",
    "AEREL": "PROBABLE",
    "AEOUT": "NOT RECOVERED/NOT RESOLVED",
    "AESCAN": "N",
    "AESCONG": "N",
    "AESDISAB": "N",
    "AESDTH": "N",
    "AESHOSP": "N",
    "AESLIFE": "N",
    "AESOD": "N",
    "AEDTC": "2013-03-25",
    "AESTDTC": "2013-03-21",
    "AEENDTC": "",
    "AESTDY": 35,
    "AEENDY": null,
    "AETRTEM": "Y",
    "ASTDT": "2013-03-21",
    "AENDT": null,
    "SITEID": "701",
    "TRT01P": "Xanomeline Low Dose",
    "TRT01A": "Xanomeline Low Dose",
    "TRT01PN": 1,
    "TRT01AN": 1,
    "TRTSDT": "2013-02-15",
    "TRTEDT": "2013-03-24",
    "AGE": 71,
    "AGEGR1": "65-80",
    "SEX": "M",
    "RACE": "WHITE",
    "SAFFL": "Y",
    "ITTFL": "Y",
    "EFFFL": "Y",
    "TRTP": "Xanomeline Low Dose",
    "TRTA": "Xanomeline Low Dose",
    "TRTPN": 1,
    "TRTAN": 1,
    "TRTEMFL": "Y",
    "ASTDY": 35,
    "AENDY": null,
    "AESEVN": 1,
    "CQ01NAM": "DERMATOLOGICAL EVENTS",
    "AOCCFL": null,
    "AOCCSFL": "Y",
    "AOCCPFL": "Y"
  },
  {
    "STUDYID": "CDISCPILOT01",
    "DOMAIN": "AE",
    "USUBJID": "01-701-1188",
    "AESEQ": 1,
    "AESPID": "E04",
    "AETERM": "ERYTHEMA",
    "AELLT": "ERYTHEMA",
    "AELLTCD": null,
    "AEDECOD": "ERYTHEMA",
    "AEPTCD": null,
    "AEHLT": "HLT_0284",
    "AEHLTCD": null,
    "AEHLGT": "HLGT_0192",
    "AEHLGTCD": null,
    "AEBODSYS": "SKIN AND SUBCUTANEOUS TISSUE DISORDERS",
    "AEBDSYCD": null,
    "AESOC": "SKIN AND SUBCUTANEOUS TISSUE DISORDERS",
    "AESOCCD": null,
    "AESEV": "MILD",
    "AESER": "N",
    "AEACN": "",
    "AEREL": "PROBABLE",
    "AEOUT": "NOT RECOVERED/NOT RESOLVED",
    "AESCAN": "N",
    "AESCONG": "N",
    "AESDISAB": "N",
    "AESDTH": "N",
    "AESHOSP": "N",
    "AESLIFE": "N",
    "AESOD": "N",
    "AEDTC": "2013-03-02",
    "AESTDTC": "2013-02-16",
    "AEENDTC": "",
    "AESTDY": 2,
    "AEENDY": null,
    "AETRTEM": "Y",
    "ASTDT": "2013-02-16",
    "AENDT": null,
    "SITEID": "701",
    "TRT01P": "Xanomeline Low Dose",
    "TRT01A": "Xanomeline Low Dose",
    "TRT01PN": 1,
    "TRT01AN": 1,
    "TRTSDT": "2013-02-15",
    "TRTEDT": "2013-03-24",
    "AGE": 71,
    "AGEGR1": "65-80",
    "SEX": "M",
    "RACE": "WHITE",
    "SAFFL": "Y",
    "ITTFL": "Y",
    "EFFFL": "Y",
    "TRTP": "Xanomeline Low Dose",
    "TRTA": "Xanomeline Low Dose",
    "TRTPN": 1,
    "TRTAN": 1,
    "TRTEMFL": "Y",
    "ASTDY": 2,
    "AENDY": null,
    "AESEVN": 1,
    "CQ01NAM": "DERMATOLOGICAL EVENTS",
    "AOCCFL": "Y",
    "AOCCSFL": "Y",
    "AOCCPFL": "Y"
  },
  {
    "STUDYID": "CDISCPILOT01",
    "DOMAIN": "AE",
    "USUBJID": "01-701-1188",
    "AESEQ": 3,
    "AESPID": "E04",
    "AETERM": "ERYTHEMA",
    "AELLT": "ERYTHEMA",
    "AELLTCD": null,
    "AEDECOD": "ERYTHEMA",
    "AEPTCD": null,
    "AEHLT": "HLT_0284",
    "AEHLTCD": null,
    "AEHLGT": "HLGT_0192",
    "AEHLGTCD": null,
    "AEBODSYS": "SKIN AND SUBCUTANEOUS TISSUE DISORDERS",
    "AEBDSYCD": null,
    "AESOC": "SKIN AND SUBCUTANEOUS TISSUE DISORDERS",
    "AESOCCD": null,
    "AESEV": "MODERATE",
    "AESER": "N",
    "AEACN": "",
    "AEREL": "PROBABLE",
    "AEOUT": "NOT RECOVERED/NOT RESOLVED",
    "AESCAN": "N",
    "AESCONG": "N",
    "AESDISAB": "N",
    "AESDTH": "N",
    "AESHOSP": "N",
    "AESLIFE": "N",
    "AESOD": "N",
    "AEDTC": "2013-03-16",
    "AESTDTC": "2013-02-16",
    "AEENDTC": "",
    "AESTDY": 2,
    "AEENDY": null,
    "AETRTEM": "Y",
    "ASTDT": "2013-02-16",
    "AENDT": null,
    "SITEID": "701",
    "TRT01P": "Xanomeline Low Dose",
    "TRT01A": "Xanomeline Low Dose",
    "TRT01PN": 1,
    "TRT01AN": 1,
    "TRTSDT": "2013-02-15",
    "TRTEDT": "2013-03-24",
    "AGE": 71,
    "AGEGR1": "65-80",
    "SEX": "M",
    "RACE": "WHITE",
    "SAFFL": "Y",
    "ITTFL": "Y",
    "EFFFL": "Y",
    "TRTP": "Xanomeline Low Dose",
    "TRTA": "Xanomeline Low Dose",
    "TRTPN": 1,
    "TRTAN": 1,
    "TRTEMFL": "Y",
    "ASTDY": 2,
    "AENDY": null,
    "AESEVN": 2,
    "CQ01NAM": "DERMATOLOGICAL EVENTS",
    "AOCCFL": null,
    "AOCCSFL": null,
    "AOCCPFL": null
  },
  {
    "STUDYID": "CDISCPILOT01",
    "DOMAIN": "AE",
    "USUBJID": "01-701-1188",
    "AESEQ": 2,
    "AESPID": "E05",
    "AETERM": "PRURITUS",
    "AELLT": "ITCHING",
    "AELLTCD": null,
    "AEDECOD": "PRURITUS",
    "AEPTCD": null,
    "AEHLT": "HLT_0778",
    "AEHLTCD": null,
    "AEHLGT": "HLGT_0695",
    "AEHLGTCD": null,
    "AEBODSYS": "SKIN AND SUBCUTANEOUS TISSUE DISORDERS",
    "AEBDSYCD": null,
    "AESOC": "SKIN AND SUBCUTANEOUS TISSUE DISORDERS",
    "AESOCCD": null,
    "AESEV": "MILD",
    "AESER": "N",
    "AEACN": "",
    "AEREL": "PROBABLE",
    "AEOUT": "NOT RECOVERED/NOT RESOLVED",
    "AESCAN": "N",
    "AESCONG": "N",
    "AESDISAB": "N",
    "AESDTH": "N",
    "AESHOSP": "N",
    "AESLIFE": "N",
    "AESOD": "N",
    "AEDTC": "2013-03-02",
    "AESTDTC": "2013-02-16",
    "AEENDTC": "",
    "AESTDY": 2,
    "AEENDY": null,
    "AETRTEM": "Y",
    "ASTDT": "2013-02-16",
    "AENDT": null,
    "SITEID": "701",
    "TRT01P": "Xanomeline Low Dose",
    "TRT01A": "Xanomeline Low Dose",
    "TRT01PN": 1,
    "TRT01AN": 1,
    "TRTSDT": "2013-02-15",
    "TRTEDT": "2013-03-24",
    "AGE": 71,
    "AGEGR1": "65-80",
    "SEX": "M",
    "RACE": "WHITE",
    "SAFFL": "Y",
    "ITTFL": "Y",
    "EFFFL": "Y",
    "TRTP": "Xanomeline Low Dose",
    "TRTA": "Xanomeline Low Dose",
    "TRTPN": 1,
    "TRTAN": 1,
    "TRTEMFL": "Y",
    "ASTDY": 2,
    "AENDY": null,
    "AESEVN": 1,
    "CQ01NAM": "DERMATOLOGICAL EVENTS",
    "AOCCFL": null,
    "AOCCSFL": null,
    "AOCCPFL": "Y"
  },
  {
    "STUDYID": "CDISCPILOT01",
    "DOMAIN": "AE",
    "USUBJID": "01-701-1188",
    "AESEQ": 4,
    "AESPID": "E05",
    "AETERM": "PRURITUS",
    "AELLT": "ITCHING",
    "AELLTCD": null,
    "AEDECOD": "PRURITUS",
    "AEPTCD": null,
    "AEHLT": "HLT_0778",
    "AEHLTCD": null,
    "AEHLGT": "HLGT_0695",
    "AEHLGTCD": null,
    "AEBODSYS": "SKIN AND SUBCUTANEOUS TISSUE DISORDERS",
    "AEBDSYCD": null,
    "AESOC": "SKIN AND SUBCUTANEOUS TISSUE DISORDERS",
    "AESOCCD": null,
    "AESEV": "MODERATE",
    "AESER": "N",
    "AEACN": "",
    "AEREL": "PROBABLE",
    "AEOUT": "NOT RECOVERED/NOT RESOLVED",
    "AESCAN": "N",
    "AESCONG": "N",
    "AESDISAB": "N",
    "AESDTH": "N",
    "AESHOSP": "N",
    "AESLIFE": "N",
    "AESOD": "N",
    "AEDTC": "2013-03-16",
    "AESTDTC": "2013-02-16",
    "AEENDTC": "",
    "AESTDY": 2,
    "AEENDY": null,
    "AETRTEM": "Y",
    "ASTDT": "2013-02-16",
    "AENDT": null,
    "SITEID": "701",
    "TRT01P": "Xanomeline Low Dose",
    "TRT01A": "Xanomeline Low Dose",
    "TRT01PN": 1,
    "TRT01AN": 1,
    "TRTSDT": "2013-02-15",
    "TRTEDT": "2013-03-24",
    "AGE": 71,
    "AGEGR1": "65-80",
    "SEX": "M",
    "RACE": "WHITE",
    "SAFFL": "Y",
    "ITTFL": "Y",
    "EFFFL": "Y",
    "TRTP": "Xanomeline Low Dose",
    "TRTA": "Xanomeline Low Dose",
    "TRTPN": 1,
    "TRTAN": 1,
    "TRTEMFL": "Y",
    "ASTDY": 2,
    "AENDY": null,
    "AESEVN": 2,
    "CQ01NAM": "DERMATOLOGICAL EVENTS",
    "AOCCFL": null,
    "AOCCSFL": null,
    "AOCCPFL": null
  },
  {
    "STUDYID": "CDISCPILOT01",
    "DOMAIN": "AE",
    "USUBJID": "01-701-1188",
    "AESEQ": 5,
    "AESPID": "E06",
    "AETERM": "URTICARIA",
    "AELLT": "WELTS",
    "AELLTCD": null,
    "AEDECOD": "URTICARIA",
    "AEPTCD": null,
    "AEHLT": "HLT_0420",
    "AEHLTCD": null,
    "AEHLGT": "HLGT_0705",
    "AEHLGTCD": null,
    "AEBODSYS": "SKIN AND SUBCUTANEOUS TISSUE DISORDERS",
    "AEBDSYCD": null,
    "AESOC": "SKIN AND SUBCUTANEOUS TISSUE DISORDERS",
    "AESOCCD": null,
    "AESEV": "MILD",
    "AESER": "N",
    "AEACN": "",
    "AEREL": "PROBABLE",
    "AEOUT": "NOT RECOVERED/NOT RESOLVED",
    "AESCAN": "N",
    "AESCONG": "N",
    "AESDISAB": "N",
    "AESDTH": "N",
    "AESHOSP": "N",
    "AESLIFE": "N",
    "AESOD": "N",
    "AEDTC": "2013-03-16",
    "AESTDTC": "2013-03-04",
    "AEENDTC": "",
    "AESTDY": 18,
    "AEENDY": null,
    "AETRTEM": "Y",
    "ASTDT": "2013-03-04",
    "AENDT": null,
    "SITEID": "701",
    "TRT01P": "Xanomeline Low Dose",
    "TRT01A": "Xanomeline Low Dose",
    "TRT01PN": 1,
    "TRT01AN": 1,
    "TRTSDT": "2013-02-15",
    "TRTEDT": "2013-03-24",
    "AGE": 71,
    "AGEGR1": "65-80",
    "SEX": "M",
    "RACE": "WHITE",
    "SAFFL": "Y",
    "ITTFL": "Y",
    "EFFFL": "Y",
    "TRTP": "Xanomeline Low Dose",
    "TRTA": "Xanomeline Low Dose",
    "TRTPN": 1,
    "TRTAN": 1,
    "TRTEMFL": "Y",
    "ASTDY": 18,
    "AENDY": null,
    "AESEVN": 1,
    "CQ01NAM": "DERMATOLOGICAL EVENTS",
    "AOCCFL": null,
    "AOCCSFL": null,
    "AOCCPFL": "Y"
  },
  {
    "STUDYID": "CDISCPILOT01",
    "DOMAIN": "AE",
    "USUBJID": "01-701-1188",
    "AESEQ": 6,
    "AESPID": "E06",
    "AETERM": "URTICARIA",
    "AELLT": "WELTS",
    "AELLTCD": null,
    "AEDECOD": "URTICARIA",
    "AEPTCD": null,
    "AEHLT": "HLT_0420",
    "AEHLTCD": null,
    "AEHLGT": "HLGT_0705",
    "AEHLGTCD": null,
    "AEBODSYS": "SKIN AND SUBCUTANEOUS TISSUE DISORDERS",
    "AEBDSYCD": null,
    "AESOC": "SKIN AND SUBCUTANEOUS TISSUE DISORDERS",
    "AESOCCD": null,
    "AESEV": "MODERATE",
    "AESER": "N",
    "AEACN": "",
    "AEREL": "PROBABLE",
    "AEOUT": "NOT RECOVERED/NOT RESOLVED",
    "AESCAN": "N",
    "AESCONG": "N",
    "AESDISAB": "N",
    "AESDTH": "N",
    "AESHOSP": "N",
    "AESLIFE": "N",
    "AESOD": "N",
    "AEDTC": "2013-03-25",
    "AESTDTC": "2013-03-04",
    "AEENDTC": "",
    "AESTDY": 18,
    "AEENDY": null,
    "AETRTEM": "Y",
    "ASTDT": "2013-03-04",
    "AENDT": null,
    "SITEID": "701",
    "TRT01P": "Xanomeline Low Dose",
    "TRT01A": "Xanomeline Low Dose",
    "TRT01PN": 1,
    "TRT01AN": 1,
    "TRTSDT": "2013-02-15",
    "TRTEDT": "2013-03-24",
    "AGE": 71,
    "AGEGR1": "65-80",
    "SEX": "M",
    "RACE": "WHITE",
    "SAFFL": "Y",
    "ITTFL": "Y",
    "EFFFL": "Y",
    "TRTP": "Xanomeline Low Dose",
    "TRTA": "Xanomeline Low Dose",
    "TRTPN": 1,
    "TRTAN": 1,
    "TRTEMFL": "Y",
    "ASTDY": 18,
    "AENDY": null,
    "AESEVN": 2,
    "CQ01NAM": "DERMATOLOGICAL EVENTS",
    "AOCCFL": null,
    "AOCCSFL": null,
    "AOCCPFL": null
  },
  {
    "STUDYID": "CDISCPILOT01",
    "DOMAIN": "AE",
    "USUBJID": "01-701-1188",
    "AESEQ": 8,
    "AESPID": "E10",
    "AETERM": "URTICARIA",
    "AELLT": "WELTS",
    "AELLTCD": null,
    "AEDECOD": "URTICARIA",
    "AEPTCD": null,
    "AEHLT": "HLT_0420",
    "AEHLTCD": null,
    "AEHLGT": "HLGT_0705",
    "AEHLGTCD": null,
    "AEBODSYS": "SKIN AND SUBCUTANEOUS TISSUE DISORDERS",
    "AEBDSYCD": null,
    "AESOC": "SKIN AND SUBCUTANEOUS TISSUE DISORDERS",
    "AESOCCD": null,
    "AESEV": "MILD",
    "AESER": "N",
    "AEACN": "",
    "AEREL": "PROBABLE",
    "AEOUT": "NOT RECOVERED/NOT RESOLVED",
    "AESCAN": "N",
    "AESCONG": "N",
    "AESDISAB": "N",
    "AESDTH": "N",
    "AESHOSP": "N",
    "AESLIFE": "N",
    "AESOD": "N",
    "AEDTC": "2013-03-25",
    "AESTDTC": "2013-03-21",
    "AEENDTC": "",
    "AESTDY": 35,
    "AEENDY": null,
    "AETRTEM": "Y",
    "ASTDT": "2013-03-21",
    "AENDT": null,
    "SITEID": "701",
    "TRT01P": "Xanomeline Low Dose",
    "TRT01A": "Xanomeline Low Dose",
    "TRT01PN": 1,
    "TRT01AN": 1,
    "TRTSDT": "2013-02-15",
    "TRTEDT": "2013-03-24",
    "AGE": 71,
    "AGEGR1": "65-80",
    "SEX": "M",
    "RACE": "WHITE",
    "SAFFL": "Y",
    "ITTFL": "Y",
    "EFFFL": "Y",
    "TRTP": "Xanomeline Low Dose",
    "TRTA": "Xanomeline Low Dose",
    "TRTPN": 1,
    "TRTAN": 1,
    "TRTEMFL": "Y",
    "ASTDY": 35,
    "AENDY": null,
    "AESEVN": 1,
    "CQ01NAM": "DERMATOLOGICAL EVENTS",
    "AOCCFL": null,
    "AOCCSFL": null,
    "AOCCPFL": null
  },
  {
    "STUDYID": "CDISCPILOT01",
    "DOMAIN": "AE",
    "USUBJID": "01-701-1192",
    "AESEQ": 13,
    "AESPID": "E13",
    "AETERM": "APPLICATION SITE ERYTHEMA",
    "AELLT": "APPLICATION SITE REDNESS",
    "AELLTCD": null,
    "AEDECOD": "APPLICATION SITE ERYTHEMA",
    "AEPTCD": null,
    "AEHLT": "HLT_0617",
    "AEHLTCD": null,
    "AEHLGT": "HLGT_0152",
    "AEHLGTCD": null,
    "AEBODSYS": "GENERAL DISORDERS AND ADMINISTRATION SITE CONDITIONS",
    "AEBDSYCD": null,
    "AESOC": "GENERAL DISORDERS AND ADMINISTRATION SITE CONDITIONS",
    "AESOCCD": null,
    "AESEV": "MILD",
    "AESER": "N",
    "AEACN": "",
    "AEREL": "PROBABLE",
    "AEOUT": "NOT RECOVERED/NOT RESOLVED",
    "AESCAN": "N",
    "AESCONG": "N",
    "AESDISAB": "N",
    "AESDTH": "N",
    "AESHOSP": "N",
    "AESLIFE": "N",
    "AESOD": "N",
    "AEDTC": "2012-12-13",
    "AESTDTC": "2012-12-05",
    "AEENDTC": "",
    "AESTDY": 137,
    "AEENDY": null,
    "AETRTEM": "Y",
    "ASTDT": "2012-12-05",
    "AENDT": null,
    "SITEID": "701",
    "TRT01P": "Xanomeline Low Dose",
    "TRT01A": "Xanomeline Low Dose",
    "TRT01PN": 1,
    "TRT01AN": 1,
    "TRTSDT": "2012-07-22",
    "TRTEDT": "2013-01-20",
    "AGE": 80,
    "AGEGR1": "65-80",
    "SEX": "F",
    "RACE": "WHITE",
    "SAFFL": "Y",
    "ITTFL": "Y",
    "EFFFL": "Y",
    "TRTP": "Xanomeline Low Dose",
    "TRTA": "Xanomeline Low Dose",
    "TRTPN": 1,
    "TRTAN": 1,
    "TRTEMFL": "Y",
    "ASTDY": 137,
    "AENDY": null,
    "AESEVN": 1,
    "CQ01NAM": "DERMATOLOGICAL EVENTS",
    "AOCCFL": null,
    "AOCCSFL": null,
    "AOCCPFL": "Y"
  },
  {
    "STUDYID": "CDISCPILOT01",
    "DOMAIN": "AE",
    "USUBJID": "01-701-1192",
    "AESEQ": 12,
    "AESPID": "E12",
    "AETERM": "APPLICATION SITE IRRITATION",
    "AELLT": "APPLICATION SITE BURNING",
    "AELLTCD": null,
    "AEDECOD": "APPLICATION SITE IRRITATION",
    "AEPTCD": null,
    "AEHLT": "HLT_0061",
    "AEHLTCD": null,
    "AEHLGT": "HLGT_0346",
    "AEHLGTCD": null,
    "AEBODSYS": "GENERAL DISORDERS AND ADMINISTRATION SITE CONDITIONS",
    "AEBDSYCD": null,
    "AESOC": "GENERAL DISORDERS AND ADMINISTRATION SITE CONDITIONS",
    "AESOCCD": null,
    "AESEV": "MILD",
    "AESER": "N",
    "AEACN": "",
    "AEREL": "PROBABLE",
    "AEOUT": "NOT RECOVERED/NOT RESOLVED",
    "AESCAN": "N",
    "AESCONG": "N",
    "AESDISAB": "N",
    "AESDTH": "N",
    "AESHOSP": "N",
    "AESLIFE": "N",
    "AESOD": "N",
    "AEDTC": "2012-12-13",
    "AESTDTC": "2012-12-05",
    "AEENDTC": "2012-12-16",
    "AESTDY": 137,
    "AEENDY": 148,
    "AETRTEM": "Y",
    "ASTDT": "2012-12-05",
    "AENDT": "2012-12-16",
    "SITEID": "701",
    "TRT01P": "Xanomeline Low Dose",
    "TRT01A": "Xanomeline Low Dose",
    "TRT01PN": 1,
    "TRT01AN": 1,
    "TRTSDT": "2012-07-22",
    "TRTEDT": "2013-01-20",
    "AGE": 80,
    "AGEGR1": "65-80",
    "SEX": "F",
    "RACE": "WHITE",
    "SAFFL": "Y",
    "ITTFL": "Y",
    "EFFFL": "Y",
    "TRTP": "Xanomeline Low Dose",
    "TRTA": "Xanomeline Low Dose",
    "TRTPN": 1,
    "TRTAN": 1,
    "TRTEMFL": "Y",
    "ASTDY": 137,
    "AENDY": 148,
    "AESEVN": 1,
    "CQ01NAM": null,
    "AOCCFL": null,
    "AOCCSFL": null,
    "AOCCPFL": "Y"
  },
  {
    "STUDYID": "CDISCPILOT01",
    "DOMAIN": "AE",
    "USUBJID": "01-701-1192",
    "AESEQ": 15,
    "AESPID": "E12",
    "AETERM": "APPLICATION SITE IRRITATION",
    "AELLT": "APPLICATION SITE BURNING",
    "AELLTCD": null,
    "AEDECOD": "APPLICATION SITE IRRITATION",
    "AEPTCD": null,
    "AEHLT": "HLT_0061",
    "AEHLTCD": null,
    "AEHLGT": "HLGT_0346",
    "AEHLGTCD": null,
    "AEBODSYS": "GENERAL DISORDERS AND ADMINISTRATION SITE CONDITIONS",
    "AEBDSYCD": null,
    "AESOC": "GENERAL DISORDERS AND ADMINISTRATION SITE CONDITIONS",
    "AESOCCD": null,
    "AESEV": "MILD",
    "AESER": "N",
    "AEACN": "",
    "AEREL": "PROBABLE",
    "AEOUT": "RECOVERED/RESOLVED",
    "AESCAN": "N",
    "AESCONG": "N",
    "AESDISAB": "N",
    "AESDTH": "N",
    "AESHOSP": "N",
    "AESLIFE": "N",
    "AESOD": "N",
    "AEDTC": "2013-01-11",
    "AESTDTC": "2012-12-05",
    "AEENDTC": "2012-12-16",
    "AESTDY": 137,
    "AEENDY": 148,
    "AETRTEM": "Y",
    "ASTDT": "2012-12-05",
    "AENDT": "2012-12-16",
    "SITEID": "701",
    "TRT01P": "Xanomeline Low Dose",
    "TRT01A": "Xanomeline Low Dose",
    "TRT01PN": 1,
    "TRT01AN": 1,
    "TRTSDT": "2012-07-22",
    "TRTEDT": "2013-01-20",
    "AGE": 80,
    "AGEGR1": "65-80",
    "SEX": "F",
    "RACE": "WHITE",
    "SAFFL": "Y",
    "ITTFL": "Y",
    "EFFFL": "Y",
    "TRTP": "Xanomeline Low Dose",
    "TRTA": "Xanomeline Low Dose",
    "TRTPN": 1,
    "TRTAN": 1,
    "TRTEMFL": "Y",
    "ASTDY": 137,
    "AENDY": 148,
    "AESEVN": 1,
    "CQ01NAM": null,
    "AOCCFL": null,
    "AOCCSFL": null,
    "AOCCPFL": null
  },
  {
    "STUDYID": "CDISCPILOT01",
    "DOMAIN": "AE",
    "USUBJID": "01-701-1192",
    "AESEQ": 14,
    "AESPID": "E14",
    "AETERM": "APPLICATION SITE PRURITUS",
    "AELLT": "APPLICATION SITE ITCHING",
    "AELLTCD": null,
    "AEDECOD": "APPLICATION SITE PRURITUS",
    "AEPTCD": null,
    "AEHLT": "HLT_0317",
    "AEHLTCD": null,
    "AEHLGT": "HLGT_0338",
    "AEHLGTCD": null,
    "AEBODSYS": "GENERAL DISORDERS AND ADMINISTRATION SITE CONDITIONS",
    "AEBDSYCD": null,
    "AESOC": "GENERAL DISORDERS AND ADMINISTRATION SITE CONDITIONS",
    "AESOCCD": null,
    "AESEV": "MILD",
    "AESER": "N",
    "AEACN": "",
    "AEREL": "PROBABLE",
    "AEOUT": "NOT RECOVERED/NOT RESOLVED",
    "AESCAN": "N",
    "AESCONG": "N",
    "AESDISAB": "N",
    "AESDTH": "N",
    "AESHOSP": "N",
    "AESLIFE": "N",
    "AESOD": "N",
    "AEDTC": "2012-12-13",
    "AESTDTC": "2012-12-05",
    "AEENDTC": "",
    "AESTDY": 137,
    "AEENDY": null,
    "AETRTEM": "Y",
    "ASTDT": "2012-12-05",
    "AENDT": null,
    "SITEID": "701",
    "TRT01P": "Xanomeline Low Dose",
    "TRT01A": "Xanomeline Low Dose",
    "TRT01PN": 1,
    "TRT01AN": 1,
    "TRTSDT": "2012-07-22",
    "TRTEDT": "2013-01-20",
    "AGE": 80,
    "AGEGR1": "65-80",
    "SEX": "F",
    "RACE": "WHITE",
    "SAFFL": "Y",
    "ITTFL": "Y",
    "EFFFL": "Y",
    "TRTP": "Xanomeline Low Dose",
    "TRTA": "Xanomeline Low Dose",
    "TRTPN": 1,
    "TRTAN": 1,
    "TRTEMFL": "Y",
    "ASTDY": 137,
    "AENDY": null,
    "AESEVN": 1,
    "CQ01NAM": "DERMATOLOGICAL EVENTS",
    "AOCCFL": null,
    "AOCCSFL": null,
    "AOCCPFL": "Y"
  },
  {
    "STUDYID": "CDISCPILOT01",
    "DOMAIN": "AE",
    "USUBJID": "01-701-1192",
    "AESEQ": 4,
    "AESPID": "E01",
    "AETERM": "COUGH",
    "AELLT": "COUGH",
    "AELLTCD": null,
    "AEDECOD": "COUGH",
    "AEPTCD": null,
    "AEHLT": "HLT_0701",
    "AEHLTCD": null,
    "AEHLGT": "HLGT_0280",
    "AEHLGTCD": null,
    "AEBODSYS": "RESPIRATORY, THORACIC AND MEDIASTINAL DISORDERS",
    "AEBDSYCD": null,
    "AESOC": "RESPIRATORY, THORACIC AND MEDIASTINAL DISORDERS",
    "AESOCCD": null,
    "AESEV": "MODERATE",
    "AESER": "N",
    "AEACN": "",
    "AEREL": "NONE",
    "AEOUT": "NOT RECOVERED/NOT RESOLVED",
    "AESCAN": "N",
    "AESCONG": "N",
    "AESDISAB": "N",
    "AESDTH": "N",
    "AESHOSP": "N",
    "AESLIFE": "N",
    "AESOD": "N",
    "AEDTC": "2012-09-23",
    "AESTDTC": "2010-06",
    "AEENDTC": "",
    "AESTDY": null,
    "AEENDY": null,
    "AETRTEM": "N",
    "ASTDT": null,
    "AENDT": null,
    "SITEID": "701",
    "TRT01P": "Xanomeline Low Dose",
    "TRT01A": "Xanomeline Low Dose",
    "TRT01PN": 1,
    "TRT01AN": 1,
    "TRTSDT": "2012-07-22",
    "TRTEDT": "2013-01-20",
    "AGE": 80,
    "AGEGR1": "65-80",
    "SEX": "F",
    "RACE": "WHITE",
    "SAFFL": "Y",
    "ITTFL": "Y",
    "EFFFL": "Y",
    "TRTP": "Xanomeline Low Dose",
    "TRTA": "Xanomeline Low Dose",
    "TRTPN": 1,
    "TRTAN": 1,
    "TRTEMFL": null,
    "ASTDY": null,
    "AENDY": null,
    "AESEVN": 2,
    "CQ01NAM": null,
    "AOCCFL": null,
    "AOCCSFL": null,
    "AOCCPFL": null
  },
  {
    "STUDYID": "CDISCPILOT01",
    "DOMAIN": "AE",
    "USUBJID": "01-701-1192",
    "AESEQ": 9,
    "AESPID": "E01",
    "AETERM": "COUGH",
    "AELLT": "COUGH",
    "AELLTCD": null,
    "AEDECOD": "COUGH",
    "AEPTCD": null,
    "AEHLT": "HLT_0701",
    "AEHLTCD": null,
    "AEHLGT": "HLGT_0280",
    "AEHLGTCD": null,
    "AEBODSYS": "RESPIRATORY, THORACIC AND MEDIASTINAL DISORDERS",
    "AEBDSYCD": null,
    "AESOC": "RESPIRATORY, THORACIC AND MEDIASTINAL DISORDERS",
    "AESOCCD": null,
    "AESEV": "MILD",
    "AESER": "N",
    "AEACN": "",
    "AEREL": "NONE",
    "AEOUT": "NOT RECOVERED/NOT RESOLVED",
    "AESCAN": "N",
    "AESCONG": "N",
    "AESDISAB": "N",
    "AESDTH": "N",
    "AESHOSP": "N",
    "AESLIFE": "N",
    "AESOD": "N",
    "AEDTC": "2012-10-14",
    "AESTDTC": "2010-06",
    "AEENDTC": "",
    "AESTDY": null,
    "AEENDY": null,
    "AETRTEM": "N",
    "ASTDT": null,
    "AENDT": null,
    "SITEID": "701",
    "TRT01P": "Xanomeline Low Dose",
    "TRT01A": "Xanomeline Low Dose",
    "TRT01PN": 1,
    "TRT01AN": 1,
    "TRTSDT": "2012-07-22",
    "TRTEDT": "2013-01-20",
    "AGE": 80,
    "AGEGR1": "65-80",
    "SEX": "F",
    "RACE": "WHITE",
    "SAFFL": "Y",
    "ITTFL": "Y",
    "EFFFL": "Y",
    "TRTP": "Xanomeline Low Dose",
    "TRTA": "Xanomeline Low Dose",
    "TRTPN": 1,
    "TRTAN": 1,
    "TRTEMFL": null,
    "ASTDY": null,
    "AENDY": null,
    "AESEVN": 1,
    "CQ01NAM": null,
    "AOCCFL": null,
    "AOCCSFL": null,
    "AOCCPFL": null
  },
  {
    "STUDYID": "CDISCPILOT01",
    "DOMAIN": "AE",
    "USUBJID": "01-701-1192",
    "AESEQ": 3,
    "AESPID": "E09",
    "AETERM": "ERYTHEMA",
    "AELLT": "ERYTHEMA FACIAL",
    "AELLTCD": null,
    "AEDECOD": "ERYTHEMA",
    "AEPTCD": null,
    "AEHLT": "HLT_0284",
    "AEHLTCD": null,
    "AEHLGT": "HLGT_0192",
    "AEHLGTCD": null,
    "AEBODSYS": "SKIN AND SUBCUTANEOUS TISSUE DISORDERS",
    "AEBDSYCD": null,
    "AESOC": "SKIN AND SUBCUTANEOUS TISSUE DISORDERS",
    "AESOCCD": null,
    "AESEV": "MILD",
    "AESER": "N",
    "AEACN": "",
    "AEREL": "NONE",
    "AEOUT": "NOT RECOVERED/NOT RESOLVED",
    "AESCAN": "N",
    "AESCONG": "N",
    "AESDISAB": "N",
    "AESDTH": "N",
    "AESHOSP": "N",
    "AESLIFE": "N",
    "AESOD": "N",
    "AEDTC": "2012-08-07",
    "AESTDTC": "2012-08-07",
    "AEENDTC": "2012-09-14",
    "AESTDY": 17,
    "AEENDY": 55,
    "AETRTEM": "Y",
    "ASTDT": "2012-08-07",
    "AENDT": "2012-09-14",
    "SITEID": "701",
    "TRT01P": "Xanomeline Low Dose",
    "TRT01A": "Xanomeline Low Dose",
    "TRT01PN": 1,
    "TRT01AN": 1,
    "TRTSDT": "2012-07-22",
    "TRTEDT": "2013-01-20",
    "AGE": 80,
    "AGEGR1": "65-80",
    "SEX": "F",
    "RACE": "WHITE",
    "SAFFL": "Y",
    "ITTFL": "Y",
    "EFFFL": "Y",
    "TRTP": "Xanomeline Low Dose",
    "TRTA": "Xanomeline Low Dose",
    "TRTPN": 1,
    "TRTAN": 1,
    "TRTEMFL": "Y",
    "ASTDY": 17,
    "AENDY": 55,
    "AESEVN": 1,
    "CQ01NAM": "DERMATOLOGICAL EVENTS",
    "AOCCFL": null,
    "AOCCSFL": "Y",
    "AOCCPFL": "Y"
  },
  {
    "STUDYID": "CDISCPILOT01",
    "DOMAIN": "AE",
    "USUBJID": "01-701-1192",
    "AESEQ": 6,
    "AESPID": "E09",
    "AETERM": "ERYTHEMA",
    "AELLT": "ERYTHEMA FACIAL",
    "AELLTCD": null,
    "AEDECOD": "ERYTHEMA",
    "AEPTCD": null,
    "AEHLT": "HLT_0284",
    "AEHLTCD": null,
    "AEHLGT": "HLGT_0192",
    "AEHLGTCD": null,
    "AEBODSYS": "SKIN AND SUBCUTANEOUS TISSUE DISORDERS",
    "AEBDSYCD": null,
    "AESOC": "SKIN AND SUBCUTANEOUS TISSUE DISORDERS",
    "AESOCCD": null,
    "AESEV": "MILD",
    "AESER": "N",
    "AEACN": "",
    "AEREL": "NONE",
    "AEOUT": "RECOVERED/RESOLVED",
    "AESCAN": "N",
    "AESCONG": "N",
    "AESDISAB": "N",
    "AESDTH": "N",
    "AESHOSP": "N",
    "AESLIFE": "N",
    "AESOD": "N",
    "AEDTC": "2012-09-23",
    "AESTDTC": "2012-08-07",
    "AEENDTC": "2012-09-14",
    "AESTDY": 17,
    "AEENDY": 55,
    "AETRTEM": "Y",
    "ASTDT": "2012-08-07",
    "AENDT": "2012-09-14",
    "SITEID": "701",
    "TRT01P": "Xanomeline Low Dose",
    "TRT01A": "Xanomeline Low Dose",
    "TRT01PN": 1,
    "TRT01AN": 1,
    "TRTSDT": "2012-07-22",
    "TRTEDT": "2013-01-20",
    "AGE": 80,
    "AGEGR1": "65-80",
    "SEX": "F",
    "RACE": "WHITE",
    "SAFFL": "Y",
    "ITTFL": "Y",
    "EFFFL": "Y",
    "TRTP": "Xanomeline Low Dose",
    "TRTA": "Xanomeline Low Dose",
    "TRTPN": 1,
    "TRTAN": 1,
    "TRTEMFL": "Y",
    "ASTDY": 17,
    "AENDY": 55,
    "AESEVN": 1,
    "CQ01NAM": "DERMATOLOGICAL EVENTS",
    "AOCCFL": null,
    "AOCCSFL": null,
    "AOCCPFL": null
  },
  {
    "STUDYID": "CDISCPILOT01",
    "DOMAIN": "AE",
    "USUBJID": "01-701-1192",
    "AESEQ": 8,
    "AESPID": "E11",
    "AETERM": "MUSCULAR WEAKNESS",
    "AELLT": "MUSCULAR WEAKNESS",
    "AELLTCD": null,
    "AEDECOD": "MUSCULAR WEAKNESS",
    "AEPTCD": null,
    "AEHLT": "HLT_0444",
    "AEHLTCD": null,
    "AEHLGT": "HLGT_0211",
    "AEHLGTCD": null,
    "AEBODSYS": "MUSCULOSKELETAL AND CONNECTIVE TISSUE DISORDERS",
    "AEBDSYCD": null,
    "AESOC": "MUSCULOSKELETAL AND CONNECTIVE TISSUE DISORDERS",
    "AESOCCD": null,
    "AESEV": "MODERATE",
    "AESER": "N",
    "AEACN": "",
    "AEREL": "NONE",
    "AEOUT": "NOT RECOVERED/NOT RESOLVED",
    "AESCAN": "N",
    "AESCONG": "N",
    "AESDISAB": "N",
    "AESDTH": "N",
    "AESHOSP": "N",
    "AESLIFE": "N",
    "AESOD": "N",
    "AEDTC": "2012-09-23",
    "AESTDTC": "2012-09-07",
    "AEENDTC": "2012-09-30",
    "AESTDY": 48,
    "AEENDY": 71,
    "AETRTEM": "Y",
    "ASTDT": "2012-09-07",
    "AENDT": "2012-09-30",
    "SITEID": "701",
    "TRT01P": "Xanomeline Low Dose",
    "TRT01A": "Xanomeline Low Dose",
    "TRT01PN": 1,
    "TRT01AN": 1,
    "TRTSDT": "2012-07-22",
    "TRTEDT": "2013-01-20",
    "AGE": 80,
    "AGEGR1": "65-80",
    "SEX": "F",
    "RACE": "WHITE",
    "SAFFL": "Y",
    "ITTFL": "Y",
    "EFFFL": "Y",
    "TRTP": "Xanomeline Low Dose",
    "TRTA": "Xanomeline Low Dose",
    "TRTPN": 1,
    "TRTAN": 1,
    "TRTEMFL": "Y",
    "ASTDY": 48,
    "AENDY": 71,
    "AESEVN": 2,
    "CQ01NAM": null,
    "AOCCFL": null,
    "AOCCSFL": "Y",
    "AOCCPFL": "Y"
  },
  {
    "STUDYID": "CDISCPILOT01",
    "DOMAIN": "AE",
    "USUBJID": "01-701-1192",
    "AESEQ": 11,
    "AESPID": "E11",
    "AETERM": "MUSCULAR WEAKNESS",
    "AELLT": "MUSCULAR WEAKNESS",
    "AELLTCD": null,
    "AEDECOD": "MUSCULAR WEAKNESS",
    "AEPTCD": null,
    "AEHLT": "HLT_0444",
    "AEHLTCD": null,
    "AEHLGT": "HLGT_0211",
    "AEHLGTCD": null,
    "AEBODSYS": "MUSCULOSKELETAL AND CONNECTIVE TISSUE DISORDERS",
    "AEBDSYCD": null,
    "AESOC": "MUSCULOSKELETAL AND CONNECTIVE TISSUE DISORDERS",
    "AESOCCD": null,
    "AESEV": "MODERATE",
    "AESER": "N",
    "AEACN": "",
    "AEREL": "NONE",
    "AEOUT": "RECOVERED/RESOLVED",
    "AESCAN": "N",
    "AESCONG": "N",
    "AESDISAB": "N",
    "AESDTH": "N",
    "AESHOSP": "N",
    "AESLIFE": "N",
    "AESOD": "N",
    "AEDTC": "2012-10-14",
    "AESTDTC": "2012-09-07",
    "AEENDTC": "2012-09-30",
    "AESTDY": 48,
    "AEENDY": 71,
    "AETRTEM": "Y",
    "ASTDT": "2012-09-07",
    "AENDT": "2012-09-30",
    "SITEID": "701",
    "TRT01P": "Xanomeline Low Dose",
    "TRT01A": "Xanomeline Low Dose",
    "TRT01PN": 1,
    "TRT01AN": 1,
    "TRTSDT": "2012-07-22",
    "TRTEDT": "2013-01-20",
    "AGE": 80,
    "AGEGR1": "65-80",
    "SEX": "F",
    "RACE": "WHITE",
    "SAFFL": "Y",
    "ITTFL": "Y",
    "EFFFL": "Y",
    "TRTP": "Xanomeline Low Dose",
    "TRTA": "Xanomeline Low Dose",
    "TRTPN": 1,
    "TRTAN": 1,
    "TRTEMFL": "Y",
    "ASTDY": 48,
    "AENDY": 71,
    "AESEVN": 2,
    "CQ01NAM": null,
    "AOCCFL": null,
    "AOCCSFL": null,
    "AOCCPFL": null
  },
  {
    "STUDYID": "CDISCPILOT01",
    "DOMAIN": "AE",
    "USUBJID": "01-701-1192",
    "AESEQ": 1,
    "AESPID": "E06",
    "AETERM": "NASAL MUCOSA BIOPSY",
    "AELLT": "NASAL MUCOSA BIOPSY",
    "AELLTCD": null,
    "AEDECOD": "NASAL MUCOSA BIOPSY",
    "AEPTCD": null,
    "AEHLT": "HLT_0680",
    "AEHLTCD": null,
    "AEHLGT": "HLGT_0396",
    "AEHLGTCD": null,
    "AEBODSYS": "INVESTIGATIONS",
    "AEBDSYCD": null,
    "AESOC": "INVESTIGATIONS",
    "AESOCCD": null,
    "AESEV": "MILD",
    "AESER": "N",
    "AEACN": "",
    "AEREL": "NONE",
    "AEOUT": "RECOVERED/RESOLVED",
    "AESCAN": "N",
    "AESCONG": "N",
    "AESDISAB": "N",
    "AESDTH": "N",
    "AESHOSP": "N",
    "AESLIFE": "N",
    "AESOD": "N",
    "AEDTC": "2012-08-07",
    "AESTDTC": "2012-08-03",
    "AEENDTC": "2012-08-03",
    "AESTDY": 13,
    "AEENDY": 13,
    "AETRTEM": "Y",
    "ASTDT": "2012-08-03",
    "AENDT": "2012-08-03",
    "SITEID": "701",
    "TRT01P": "Xanomeline Low Dose",
    "TRT01A": "Xanomeline Low Dose",
    "TRT01PN": 1,
    "TRT01AN": 1,
    "TRTSDT": "2012-07-22",
    "TRTEDT": "2013-01-20",
    "AGE": 80,
    "AGEGR1": "65-80",
    "SEX": "F",
    "RACE": "WHITE",
    "SAFFL": "Y",
    "ITTFL": "Y",
    "EFFFL": "Y",
    "TRTP": "Xanomeline Low Dose",
    "TRTA": "Xanomeline Low Dose",
    "TRTPN": 1,
    "TRTAN": 1,
    "TRTEMFL": "Y",
    "ASTDY": 13,
    "AENDY": 13,
    "AESEVN": 1,
    "CQ01NAM": null,
    "AOCCFL": "Y",
    "AOCCSFL": "Y",
    "AOCCPFL": "Y"
  },
  {
    "STUDYID": "CDISCPILOT01",
    "DOMAIN": "AE",
    "USUBJID": "01-701-1192",
    "AESEQ": 7,
    "AESPID": "E10",
    "AETERM": "PNEUMONIA",
    "AELLT": "PNEUMONIA",
    "AELLTCD": null,
    "AEDECOD": "PNEUMONIA",
    "AEPTCD": null,
    "AEHLT": "HLT_0251",
    "AEHLTCD": null,
    "AEHLGT": "HLGT_0671",
    "AEHLGTCD": null,
    "AEBODSYS": "INFECTIONS AND INFESTATIONS",
    "AEBDSYCD": null,
    "AESOC": "INFECTIONS AND INFESTATIONS",
    "AESOCCD": null,
    "AESEV": "MODERATE",
    "AESER": "N",
    "AEACN": "",
    "AEREL": "NONE",
    "AEOUT": "NOT RECOVERED/NOT RESOLVED",
    "AESCAN": "N",
    "AESCONG": "N",
    "AESDISAB": "N",
    "AESDTH": "N",
    "AESHOSP": "Y",
    "AESLIFE": "N",
    "AESOD": "N",
    "AEDTC": "2012-09-23",
    "AESTDTC": "2012-09-07",
    "AEENDTC": "2012-10-06",
    "AESTDY": 48,
    "AEENDY": 77,
    "AETRTEM": "Y",
    "ASTDT": "2012-09-07",
    "AENDT": "2012-10-06",
    "SITEID": "701",
    "TRT01P": "Xanomeline Low Dose",
    "TRT01A": "Xanomeline Low Dose",
    "TRT01PN": 1,
    "TRT01AN": 1,
    "TRTSDT": "2012-07-22",
    "TRTEDT": "2013-01-20",
    "AGE": 80,
    "AGEGR1": "65-80",
    "SEX": "F",
    "RACE": "WHITE",
    "SAFFL": "Y",
    "ITTFL": "Y",
    "EFFFL": "Y",
    "TRTP": "Xanomeline Low Dose",
    "TRTA": "Xanomeline Low Dose",
    "TRTPN": 1,
    "TRTAN": 1,
    "TRTEMFL": "Y",
    "ASTDY": 48,
    "AENDY": 77,
    "AESEVN": 2,
    "CQ01NAM": null,
    "AOCCFL": null,
    "AOCCSFL": "Y",
    "AOCCPFL": "Y"
  },
  {
    "STUDYID": "CDISCPILOT01",
    "DOMAIN": "AE",
    "USUBJID": "01-701-1192",
    "AESEQ": 10,
    "AESPID": "E10",
    "AETERM": "PNEUMONIA",
    "AELLT": "PNEUMONIA",
    "AELLTCD": null,
    "AEDECOD": "PNEUMONIA",
    "AEPTCD": null,
    "AEHLT": "HLT_0251",
    "AEHLTCD": null,
    "AEHLGT": "HLGT_0671",
    "AEHLGTCD": null,
    "AEBODSYS": "INFECTIONS AND INFESTATIONS",
    "AEBDSYCD": null,
    "AESOC": "INFECTIONS AND INFESTATIONS",
    "AESOCCD": null,
    "AESEV": "MODERATE",
    "AESER": "N",
    "AEACN": "",
    "AEREL": "NONE",
    "AEOUT": "RECOVERED/RESOLVED",
    "AESCAN": "N",
    "AESCONG": "N",
    "AESDISAB": "N",
    "AESDTH": "N",
    "AESHOSP": "Y",
    "AESLIFE": "N",
    "AESOD": "N",
    "AEDTC": "2012-10-14",
    "AESTDTC": "2012-09-07",
    "AEENDTC": "2012-10-06",
    "AESTDY": 48,
    "AEENDY": 77,
    "AETRTEM": "Y",
    "ASTDT": "2012-09-07",
    "AENDT": "2012-10-06",
    "SITEID": "701",
    "TRT01P": "Xanomeline Low Dose",
    "TRT01A": "Xanomeline Low Dose",
    "TRT01PN": 1,
    "TRT01AN": 1,
    "TRTSDT": "2012-07-22",
    "TRTEDT": "2013-01-20",
    "AGE": 80,
    "AGEGR1": "65-80",
    "SEX": "F",
    "RACE": "WHITE",
    "SAFFL": "Y",
    "ITTFL": "Y",
    "EFFFL": "Y",
    "TRTP": "Xanomeline Low Dose",
    "TRTA": "Xanomeline Low Dose",
    "TRTPN": 1,
    "TRTAN": 1,
    "TRTEMFL": "Y",
    "ASTDY": 48,
    "AENDY": 77,
    "AESEVN": 2,
    "CQ01NAM": null,
    "AOCCFL": null,
    "AOCCSFL": null,
    "AOCCPFL": null
  },
  {
    "STUDYID": "CDISCPILOT01",
    "DOMAIN": "AE",
    "USUBJID": "01-701-1192",
    "AESEQ": 2,
    "AESPID": "E08",
    "AETERM": "SECRETION DISCHARGE",
    "AELLT": "SECRETION DISCHARGE",
    "AELLTCD": null,
    "AEDECOD": "SECRETION DISCHARGE",
    "AEPTCD": null,
    "AEHLT": "HLT_0683",
    "AEHLTCD": null,
    "AEHLGT": "HLGT_0575",
    "AEHLGTCD": null,
    "AEBODSYS": "GENERAL DISORDERS AND ADMINISTRATION SITE CONDITIONS",
    "AEBDSYCD": null,
    "AESOC": "GENERAL DISORDERS AND ADMINISTRATION SITE CONDITIONS",
    "AESOCCD": null,
    "AESEV": "MILD",
    "AESER": "N",
    "AEACN": "",
    "AEREL": "NONE",
    "AEOUT": "NOT RECOVERED/NOT RESOLVED",
    "AESCAN": "N",
    "AESCONG": "N",
    "AESDISAB": "N",
    "AESDTH": "N",
    "AESHOSP": "N",
    "AESLIFE": "N",
    "AESOD": "N",
    "AEDTC": "2012-08-07",
    "AESTDTC": "2012-08-07",
    "AEENDTC": "2012-09-14",
    "AESTDY": 17,
    "AEENDY": 55,
    "AETRTEM": "Y",
    "ASTDT": "2012-08-07",
    "AENDT": "2012-09-14",
    "SITEID": "701",
    "TRT01P": "Xanomeline Low Dose",
    "TRT01A": "Xanomeline Low Dose",
    "TRT01PN": 1,
    "TRT01AN": 1,
    "TRTSDT": "2012-07-22",
    "TRTEDT": "2013-01-20",
    "AGE": 80,
    "AGEGR1": "65-80",
    "SEX": "F",
    "RACE": "WHITE",
    "SAFFL": "Y",
    "ITTFL": "Y",
    "EFFFL": "Y",
    "TRTP": "Xanomeline Low Dose",
    "TRTA": "Xanomeline Low Dose",
    "TRTPN": 1,
    "TRTAN": 1,
    "TRTEMFL": "Y",
    "ASTDY": 17,
    "AENDY": 55,
    "AESEVN": 1,
    "CQ01NAM": null,
    "AOCCFL": null,
    "AOCCSFL": "Y",
    "AOCCPFL": "Y"
  },
  {
    "STUDYID": "CDISCPILOT01",
    "DOMAIN": "AE",
    "USUBJID": "01-701-1192",
    "AESEQ": 5,
    "AESPID": "E08",
    "AETERM": "SECRETION DISCHARGE",
    "AELLT": "SECRETION DISCHARGE",
    "AELLTCD": null,
    "AEDECOD": "SECRETION DISCHARGE",
    "AEPTCD": null,
    "AEHLT": "HLT_0683",
    "AEHLTCD": null,
    "AEHLGT": "HLGT_0575",
    "AEHLGTCD": null,
    "AEBODSYS": "GENERAL DISORDERS AND ADMINISTRATION SITE CONDITIONS",
    "AEBDSYCD": null,
    "AESOC": "GENERAL DISORDERS AND ADMINISTRATION SITE CONDITIONS",
    "AESOCCD": null,
    "AESEV": "MILD",
    "AESER": "N",
    "AEACN": "",
    "AEREL": "NONE",
    "AEOUT": "RECOVERED/RESOLVED",
    "AESCAN": "N",
    "AESCONG": "N",
    "AESDISAB": "N",
    "AESDTH": "N",
    "AESHOSP": "N",
    "AESLIFE": "N",
    "AESOD": "N",
    "AEDTC": "2012-09-23",
    "AESTDTC": "2012-08-07",
    "AEENDTC": "2012-09-14",
    "AESTDY": 17,
    "AEENDY": 55,
    "AETRTEM": "Y",
    "ASTDT": "2012-08-07",
    "AENDT": "2012-09-14",
    "SITEID": "701",
    "TRT01P": "Xanomeline Low Dose",
    "TRT01A": "Xanomeline Low Dose",
    "TRT01PN": 1,
    "TRT01AN": 1,
    "TRTSDT": "2012-07-22",
    "TRTEDT": "2013-01-20",
    "AGE": 80,
    "AGEGR1": "65-80",
    "SEX": "F",
    "RACE": "WHITE",
    "SAFFL": "Y",
    "ITTFL": "Y",
    "EFFFL": "Y",
    "TRTP": "Xanomeline Low Dose",
    "TRTA": "Xanomeline Low Dose",
    "TRTPN": 1,
    "TRTAN": 1,
    "TRTEMFL": "Y",
    "ASTDY": 17,
    "AENDY": 55,
    "AESEVN": 1,
    "CQ01NAM": null,
    "AOCCFL": null,
    "AOCCSFL": null,
    "AOCCPFL": null
  },
  {
    "STUDYID": "CDISCPILOT01",
    "DOMAIN": "AE",
    "USUBJID": "01-701-1203",
    "AESEQ": 1,
    "AESPID": "E05",
    "AETERM": "EYE LASER SURGERY",
    "AELLT": "EYE LASER SURGERY",
    "AELLTCD": null,
    "AEDECOD": "EYE LASER SURGERY",
    "AEPTCD": null,
    "AEHLT": "HLT_0355",
    "AEHLTCD": null,
    "AEHLGT": "HLGT_0189",
    "AEHLGTCD": null,
    "AEBODSYS": "SURGICAL AND MEDICAL PROCEDURES",
    "AEBDSYCD": null,
    "AESOC": "SURGICAL AND MEDICAL PROCEDURES",
    "AESOCCD": null,
    "AESEV": "MILD",
    "AESER": "N",
    "AEACN": "",
    "AEREL": "NONE",
    "AEOUT": "RECOVERED/RESOLVED",
    "AESCAN": "N",
    "AESCONG": "N",
    "AESDISAB": "N",
    "AESDTH": "N",
    "AESHOSP": "N",
    "AESLIFE": "N",
    "AESOD": "N",
    "AEDTC": "2013-03-30",
    "AESTDTC": "2013-03-21",
    "AEENDTC": "2013-03-21",
    "AESTDY": 48,
    "AEENDY": 48,
    "AETRTEM": "Y",
    "ASTDT": "2013-03-21",
    "AENDT": "2013-03-21",
    "SITEID": "701",
    "TRT01P": "Placebo",
    "TRT01A": "Placebo",
    "TRT01PN": 0,
    "TRT01AN": 0,
    "TRTSDT": "2013-02-02",
    "TRTEDT": "2013-08-03",
    "AGE": 81,
    "AGEGR1": ">80",
    "SEX": "F",
    "RACE": "BLACK OR AFRICAN AMERICAN",
    "SAFFL": "Y",
    "ITTFL": "Y",
    "EFFFL": "Y",
    "TRTP": "Placebo",
    "TRTA": "Placebo",
    "TRTPN": 0,
    "TRTAN": 0,
    "TRTEMFL": "Y",
    "ASTDY": 48,
    "AENDY": 48,
    "AESEVN": 1,
    "CQ01NAM": null,
    "AOCCFL": "Y",
    "AOCCSFL": "Y",
    "AOCCPFL": "Y"
  },
  {
    "STUDYID": "CDISCPILOT01",
    "DOMAIN": "AE",
    "USUBJID": "01-701-1211",
    "AESEQ": 5,
    "AESPID": "E05",
    "AETERM": "APPLICATION SITE ERYTHEMA",
    "AELLT": "APPLICATION SITE REDNESS",
    "AELLTCD": null,
    "AEDECOD": "APPLICATION SITE ERYTHEMA",
    "AEPTCD": null,
    "AEHLT": "HLT_0617",
    "AEHLTCD": null,
    "AEHLGT": "HLGT_0152",
    "AEHLGTCD": null,
    "AEBODSYS": "GENERAL DISORDERS AND ADMINISTRATION SITE CONDITIONS",
    "AEBDSYCD": null,
    "AESOC": "GENERAL DISORDERS AND ADMINISTRATION SITE CONDITIONS",
    "AESOCCD": null,
    "AESEV": "MILD",
    "AESER": "N",
    "AEACN": "",
    "AEREL": "POSSIBLE",
    "AEOUT": "NOT RECOVERED/NOT RESOLVED",
    "AESCAN": "N",
    "AESCONG": "N",
    "AESDISAB": "N",
    "AESDTH": "N",
    "AESHOSP": "N",
    "AESLIFE": "N",
    "AESOD": "N",
    "AEDTC": "2012-12-11",
    "AESTDTC": "2012-11-29",
    "AEENDTC": "",
    "AESTDY": 15,
    "AEENDY": null,
    "AETRTEM": "Y",
    "ASTDT": "2012-11-29",
    "AENDT": null,
    "SITEID": "701",
    "TRT01P": "Xanomeline Low Dose",
    "TRT01A": "Xanomeline Low Dose",
    "TRT01PN": 1,
    "TRT01AN": 1,
    "TRTSDT": "2012-11-15",
    "TRTEDT": "2013-01-12",
    "AGE": 76,
    "AGEGR1": "65-80",
    "SEX": "F",
    "RACE": "WHITE",
    "SAFFL": "Y",
    "ITTFL": "Y",
    "EFFFL": "Y",
    "TRTP": "Xanomeline Low Dose",
    "TRTA": "Xanomeline Low Dose",
    "TRTPN": 1,
    "TRTAN": 1,
    "TRTEMFL": "Y",
    "ASTDY": 15,
    "AENDY": null,
    "AESEVN": 1,
    "CQ01NAM": "DERMATOLOGICAL EVENTS",
    "AOCCFL": null,
    "AOCCSFL": null,
    "AOCCPFL": "Y"
  },
  {
    "STUDYID": "CDISCPILOT01",
    "DOMAIN": "AE",
    "USUBJID": "01-701-1211",
    "AESEQ": 1,
    "AESPID": "E08",
    "AETERM": "APPLICATION SITE PRURITUS",
    "AELLT": "APPLICATION SITE ITCHING",
    "AELLTCD": null,
    "AEDECOD": "APPLICATION SITE PRURITUS",
    "AEPTCD": null,
    "AEHLT": "HLT_0317",
    "AEHLTCD": null,
    "AEHLGT": "HLGT_0338",
    "AEHLGTCD": null,
    "AEBODSYS": "GENERAL DISORDERS AND ADMINISTRATION SITE CONDITIONS",
    "AEBDSYCD": null,
    "AESOC": "GENERAL DISORDERS AND ADMINISTRATION SITE CONDITIONS",
    "AESOCCD": null,
    "AESEV": "MILD",
    "AESER": "N",
    "AEACN": "",
    "AEREL": "POSSIBLE",
    "AEOUT": "NOT RECOVERED/NOT RESOLVED",
    "AESCAN": "N",
    "AESCONG": "N",
    "AESDISAB": "N",
    "AESDTH": "N",
    "AESHOSP": "N",
    "AESLIFE": "N",
    "AESOD": "N",
    "AEDTC": "2012-11-28",
    "AESTDTC": "2012-11-16",
    "AEENDTC": "",
    "AESTDY": 2,
    "AEENDY": null,
    "AETRTEM": "Y",
    "ASTDT": "2012-11-16",
    "AENDT": null,
    "SITEID": "701",
    "TRT01P": "Xanomeline Low Dose",
    "TRT01A": "Xanomeline Low Dose",
    "TRT01PN": 1,
    "TRT01AN": 1,
    "TRTSDT": "2012-11-15",
    "TRTEDT": "2013-01-12",
    "AGE": 76,
    "AGEGR1": "65-80",
    "SEX": "F",
    "RACE": "WHITE",
    "SAFFL": "Y",
    "ITTFL": "Y",
    "EFFFL": "Y",
    "TRTP": "Xanomeline Low Dose",
    "TRTA": "Xanomeline Low Dose",
    "TRTPN": 1,
    "TRTAN": 1,
    "TRTEMFL": "Y",
    "ASTDY": 2,
    "AENDY": null,
    "AESEVN": 1,
    "CQ01NAM": "DERMATOLOGICAL EVENTS",
    "AOCCFL": "Y",
    "AOCCSFL": "Y",
    "AOCCPFL": "Y"
  },
  {
    "STUDYID": "CDISCPILOT01",
    "DOMAIN": "AE",
    "USUBJID": "01-701-1211",
    "AESEQ": 7,
    "AESPID": "E12",
    "AETERM": "CONFUSIONAL STATE",
    "AELLT": "CONFUSION",
    "AELLTCD": null,
    "AEDECOD": "CONFUSIONAL STATE",
    "AEPTCD": null,
    "AEHLT": "HLT_0642",
    "AEHLTCD": null,
    "AEHLGT": "HLGT_0329",
    "AEHLGTCD": null,
    "AEBODSYS": "PSYCHIATRIC DISORDERS",
    "AEBDSYCD": null,
    "AESOC": "PSYCHIATRIC DISORDERS",
    "AESOCCD": null,
    "AESEV": "MODERATE",
    "AESER": "N",
    "AEACN": "",
    "AEREL": "NONE",
    "AEOUT": "NOT RECOVERED/NOT RESOLVED",
    "AESCAN": "N",
    "AESCONG": "N",
    "AESDISAB": "N",
    "AESDTH": "N",
    "AESHOSP": "N",
    "AESLIFE": "N",
    "AESOD": "N",
    "AEDTC": "2013-01-14",
    "AESTDTC": "2013-01-11",
    "AEENDTC": "",
    "AESTDY": 58,
    "AEENDY": null,
    "AETRTEM": "Y",
    "ASTDT": "2013-01-11",
    "AENDT": null,
    "SITEID": "701",
    "TRT01P": "Xanomeline Low Dose",
    "TRT01A": "Xanomeline Low Dose",
    "TRT01PN": 1,
    "TRT01AN": 1,
    "TRTSDT": "2012-11-15",
    "TRTEDT": "2013-01-12",
    "AGE": 76,
    "AGEGR1": "65-80",
    "SEX": "F",
    "RACE": "WHITE",
    "SAFFL": "Y",
    "ITTFL": "Y",
    "EFFFL": "Y",
    "TRTP": "Xanomeline Low Dose",
    "TRTA": "Xanomeline Low Dose",
    "TRTPN": 1,
    "TRTAN": 1,
    "TRTEMFL": "Y",
    "ASTDY": 58,
    "AENDY": null,
    "AESEVN": 2,
    "CQ01NAM": null,
    "AOCCFL": null,
    "AOCCSFL": "Y",
    "AOCCPFL": "Y"
  },
  {
    "STUDYID": "CDISCPILOT01",
    "DOMAIN": "AE",
    "USUBJID": "01-701-1211",
    "AESEQ": 8,
    "AESPID": "E13",
    "AETERM": "DYSPNOEA",
    "AELLT": "SHORTNESS OF BREATH",
    "AELLTCD": null,
    "AEDECOD": "DYSPNOEA",
    "AEPTCD": null,
    "AEHLT": "HLT_0296",
    "AEHLTCD": null,
    "AEHLGT": "HLGT_0255",
    "AEHLGTCD": null,
    "AEBODSYS": "RESPIRATORY, THORACIC AND MEDIASTINAL DISORDERS",
    "AEBDSYCD": null,
    "AESOC": "RESPIRATORY, THORACIC AND MEDIASTINAL DISORDERS",
    "AESOCCD": null,
    "AESEV": "MODERATE",
    "AESER": "N",
    "AEACN": "",
    "AEREL": "NONE",
    "AEOUT": "NOT RECOVERED/NOT RESOLVED",
    "AESCAN": "N",
    "AESCONG": "N",
    "AESDISAB": "N",
    "AESDTH": "N",
    "AESHOSP": "N",
    "AESLIFE": "N",
    "AESOD": "N",
    "AEDTC": "2013-01-14",
    "AESTDTC": "2013-01-11",
    "AEENDTC": "",
    "AESTDY": 58,
    "AEENDY": null,
    "AETRTEM": "Y",
    "ASTDT": "2013-01-11",
    "AENDT": null,
    "SITEID": "701",
    "TRT01P": "Xanomeline Low Dose",
    "TRT01A": "Xanomeline Low Dose",
    "TRT01PN": 1,
    "TRT01AN": 1,
    "TRTSDT": "2012-11-15",
    "TRTEDT": "2013-01-12",
    "AGE": 76,
    "AGEGR1": "65-80",
    "SEX": "F",
    "RACE": "WHITE",
    "SAFFL": "Y",
    "ITTFL": "Y",
    "EFFFL": "Y",
    "TRTP": "Xanomeline Low Dose",
    "TRTA": "Xanomeline Low Dose",
    "TRTPN": 1,
    "TRTAN": 1,
    "TRTEMFL": "Y",
    "ASTDY": 58,
    "AENDY": null,
    "AESEVN": 2,
    "CQ01NAM": null,
    "AOCCFL": null,
    "AOCCSFL": "Y",
    "AOCCPFL": "Y"
  },
  {
    "STUDYID": "CDISCPILOT01",
    "DOMAIN": "AE",
    "USUBJID": "01-701-1211",
    "AESEQ": 4,
    "AESPID": "E09",
    "AETERM": "INCONTINENCE",
    "AELLT": "INCONTINENCE",
    "AELLTCD": null,
    "AEDECOD": "INCONTINENCE",
    "AEPTCD": null,
    "AEHLT": "HLT_0560",
    "AEHLTCD": null,
    "AEHLGT": "HLGT_0503",
    "AEHLGTCD": null,
    "AEBODSYS": "RENAL AND URINARY DISORDERS",
    "AEBDSYCD": null,
    "AESOC": "RENAL AND URINARY DISORDERS",
    "AESOCCD": null,
    "AESEV": "MILD",
    "AESER": "N",
    "AEACN": "",
    "AEREL": "NONE",
    "AEOUT": "NOT RECOVERED/NOT RESOLVED",
    "AESCAN": "N",
    "AESCONG": "N",
    "AESDISAB": "N",
    "AESDTH": "N",
    "AESHOSP": "N",
    "AESLIFE": "N",
    "AESOD": "N",
    "AEDTC": "2012-11-28",
    "AESTDTC": "2012-11-22",
    "AEENDTC": "",
    "AESTDY": 8,
    "AEENDY": null,
    "AETRTEM": "Y",
    "ASTDT": "2012-11-22",
    "AENDT": null,
    "SITEID": "701",
    "TRT01P": "Xanomeline Low Dose",
    "TRT01A": "Xanomeline Low Dose",
    "TRT01PN": 1,
    "TRT01AN": 1,
    "TRTSDT": "2012-11-15",
    "TRTEDT": "2013-01-12",
    "AGE": 76,
    "AGEGR1": "65-80",
    "SEX": "F",
    "RACE": "WHITE",
    "SAFFL": "Y",
    "ITTFL": "Y",
    "EFFFL": "Y",
    "TRTP": "Xanomeline Low Dose",
    "TRTA": "Xanomeline Low Dose",
    "TRTPN": 1,
    "TRTAN": 1,
    "TRTEMFL": "Y",
    "ASTDY": 8,
    "AENDY": null,
    "AESEVN": 1,
    "CQ01NAM": null,
    "AOCCFL": null,
    "AOCCSFL": "Y",
    "AOCCPFL": "Y"
  },
  {
    "STUDYID": "CDISCPILOT01",
    "DOMAIN": "AE",
    "USUBJID": "01-701-1211",
    "AESEQ": 2,
    "AESPID": "E03",
    "AETERM": "JOINT DISLOCATION",
    "AELLT": "SHOULDER DISLOCATION",
    "AELLTCD": null,
    "AEDECOD": "JOINT DISLOCATION",
    "AEPTCD": null,
    "AEHLT": "HLT_0035",
    "AEHLTCD": null,
    "AEHLGT": "HLGT_0227",
    "AEHLGTCD": null,
    "AEBODSYS": "INJURY, POISONING AND PROCEDURAL COMPLICATIONS",
    "AEBDSYCD": null,
    "AESOC": "INJURY, POISONING AND PROCEDURAL COMPLICATIONS",
    "AESOCCD": null,
    "AESEV": "MODERATE",
    "AESER": "N",
    "AEACN": "",
    "AEREL": "NONE",
    "AEOUT": "RECOVERED/RESOLVED",
    "AESCAN": "N",
    "AESCONG": "N",
    "AESDISAB": "N",
    "AESDTH": "N",
    "AESHOSP": "N",
    "AESLIFE": "N",
    "AESOD": "N",
    "AEDTC": "2012-11-28",
    "AESTDTC": "2012-11-21",
    "AEENDTC": "2012-11-21",
    "AESTDY": 7,
    "AEENDY": 7,
    "AETRTEM": "Y",
    "ASTDT": "2012-11-21",
    "AENDT": "2012-11-21",
    "SITEID": "701",
    "TRT01P": "Xanomeline Low Dose",
    "TRT01A": "Xanomeline Low Dose",
    "TRT01PN": 1,
    "TRT01AN": 1,
    "TRTSDT": "2012-11-15",
    "TRTEDT": "2013-01-12",
    "AGE": 76,
    "AGEGR1": "65-80",
    "SEX": "F",
    "RACE": "WHITE",
    "SAFFL": "Y",
    "ITTFL": "Y",
    "EFFFL": "Y",
    "TRTP": "Xanomeline Low Dose",
    "TRTA": "Xanomeline Low Dose",
    "TRTPN": 1,
    "TRTAN": 1,
    "TRTEMFL": "Y",
    "ASTDY": 7,
    "AENDY": 7,
    "AESEVN": 2,
    "CQ01NAM": null,
    "AOCCFL": null,
    "AOCCSFL": "Y",
    "AOCCPFL": "Y"
  },
  {
    "STUDYID": "CDISCPILOT01",
    "DOMAIN": "AE",
    "USUBJID": "01-701-1211",
    "AESEQ": 3,
    "AESPID": "E04",
    "AETERM": "SHOULDER PAIN",
    "AELLT": "SHOULDER PAIN",
    "AELLTCD": null,
    "AEDECOD": "SHOULDER PAIN",
    "AEPTCD": null,
    "AEHLT": "HLT_0527",
    "AEHLTCD": null,
    "AEHLGT": "HLGT_0288",
    "AEHLGTCD": null,
    "AEBODSYS": "MUSCULOSKELETAL AND CONNECTIVE TISSUE DISORDERS",
    "AEBDSYCD": null,
    "AESOC": "MUSCULOSKELETAL AND CONNECTIVE TISSUE DISORDERS",
    "AESOCCD": null,
    "AESEV": "MILD",
    "AESER": "N",
    "AEACN": "",
    "AEREL": "NONE",
    "AEOUT": "NOT RECOVERED/NOT RESOLVED",
    "AESCAN": "N",
    "AESCONG": "N",
    "AESDISAB": "N",
    "AESDTH": "N",
    "AESHOSP": "N",
    "AESLIFE": "N",
    "AESOD": "N",
    "AEDTC": "2012-11-28",
    "AESTDTC": "2012-11-21",
    "AEENDTC": "",
    "AESTDY": 7,
    "AEENDY": null,
    "AETRTEM": "Y",
    "ASTDT": "2012-11-21",
    "AENDT": null,
    "SITEID": "701",
    "TRT01P": "Xanomeline Low Dose",
    "TRT01A": "Xanomeline Low Dose",
    "TRT01PN": 1,
    "TRT01AN": 1,
    "TRTSDT": "2012-11-15",
    "TRTEDT": "2013-01-12",
    "AGE": 76,
    "AGEGR1": "65-80",
    "SEX": "F",
    "RACE": "WHITE",
    "SAFFL": "Y",
    "ITTFL": "Y",
    "EFFFL": "Y",
    "TRTP": "Xanomeline Low Dose",
    "TRTA": "Xanomeline Low Dose",
    "TRTPN": 1,
    "TRTAN": 1,
    "TRTEMFL": "Y",
    "ASTDY": 7,
    "AENDY": null,
    "AESEVN": 1,
    "CQ01NAM": null,
    "AOCCFL": null,
    "AOCCSFL": "Y",
    "AOCCPFL": "Y"
  },
  {
    "STUDYID": "CDISCPILOT01",
    "DOMAIN": "AE",
    "USUBJID": "01-701-1211",
    "AESEQ": 6,
    "AESPID": "E06",
    "AETERM": "SKIN LACERATION",
    "AELLT": "LACERATION OF FACE",
    "AELLTCD": null,
    "AEDECOD": "SKIN LACERATION",
    "AEPTCD": null,
    "AEHLT": "HLT_0075",
    "AEHLTCD": null,
    "AEHLGT": "HLGT_0118",
    "AEHLGTCD": null,
    "AEBODSYS": "INJURY, POISONING AND PROCEDURAL COMPLICATIONS",
    "AEBDSYCD": null,
    "AESOC": "INJURY, POISONING AND PROCEDURAL COMPLICATIONS",
    "AESOCCD": null,
    "AESEV": "MILD",
    "AESER": "N",
    "AEACN": "",
    "AEREL": "NONE",
    "AEOUT": "NOT RECOVERED/NOT RESOLVED",
    "AESCAN": "N",
    "AESCONG": "N",
    "AESDISAB": "N",
    "AESDTH": "N",
    "AESHOSP": "N",
    "AESLIFE": "N",
    "AESOD": "N",
    "AEDTC": "2012-12-11",
    "AESTDTC": "2012-12-09",
    "AEENDTC": "",
    "AESTDY": 25,
    "AEENDY": null,
    "AETRTEM": "Y",
    "ASTDT": "2012-12-09",
    "AENDT": null,
    "SITEID": "701",
    "TRT01P": "Xanomeline Low Dose",
    "TRT01A": "Xanomeline Low Dose",
    "TRT01PN": 1,
    "TRT01AN": 1,
    "TRTSDT": "2012-11-15",
    "TRTEDT": "2013-01-12",
    "AGE": 76,
    "AGEGR1": "65-80",
    "SEX": "F",
    "RACE": "WHITE",
    "SAFFL": "Y",
    "ITTFL": "Y",
    "EFFFL": "Y",
    "TRTP": "Xanomeline Low Dose",
    "TRTA": "Xanomeline Low Dose",
    "TRTPN": 1,
    "TRTAN": 1,
    "TRTEMFL": "Y",
    "ASTDY": 25,
    "AENDY": null,
    "AESEVN": 1,
    "CQ01NAM": "DERMATOLOGICAL EVENTS",
    "AOCCFL": null,
    "AOCCSFL": null,
    "AOCCPFL": "Y"
  },
  {
    "STUDYID": "CDISCPILOT01",
    "DOMAIN": "AE",
    "USUBJID": "01-701-1211",
    "AESEQ": 9,
    "AESPID": "E11",
    "AETERM": "SUDDEN DEATH",
    "AELLT": "SUDDEN DEATH",
    "AELLTCD": null,
    "AEDECOD": "SUDDEN DEATH",
    "AEPTCD": null,
    "AEHLT": "HLT_0142",
    "AEHLTCD": null,
    "AEHLGT": "HLGT_0272",
    "AEHLGTCD": null,
    "AEBODSYS": "GENERAL DISORDERS AND ADMINISTRATION SITE CONDITIONS",
    "AEBDSYCD": null,
    "AESOC": "GENERAL DISORDERS AND ADMINISTRATION SITE CONDITIONS",
    "AESOCCD": null,
    "AESEV": "SEVERE",
    "AESER": "N",
    "AEACN": "",
    "AEREL": "NONE",
    "AEOUT": "FATAL",
    "AESCAN": "N",
    "AESCONG": "N",
    "AESDISAB": "N",
    "AESDTH": "Y",
    "AESHOSP": "N",
    "AESLIFE": "Y",
    "AESOD": "N",
    "AEDTC": "2013-01-14",
    "AESTDTC": "2013-01-14",
    "AEENDTC": "2013-01-14",
    "AESTDY": 61,
    "AEENDY": 61,
    "AETRTEM": "Y",
    "ASTDT": "2013-01-14",
    "AENDT": "2013-01-14",
    "SITEID": "701",
    "TRT01P": "Xanomeline Low Dose",
    "TRT01A": "Xanomeline Low Dose",
    "TRT01PN": 1,
    "TRT01AN": 1,
    "TRTSDT": "2012-11-15",
    "TRTEDT": "2013-01-12",
    "AGE": 76,
    "AGEGR1": "65-80",
    "SEX": "F",
    "RACE": "WHITE",
    "SAFFL": "Y",
    "ITTFL": "Y",
    "EFFFL": "Y",
    "TRTP": "Xanomeline Low Dose",
    "TRTA": "Xanomeline Low Dose",
    "TRTPN": 1,
    "TRTAN": 1,
    "TRTEMFL": "Y",
    "ASTDY": 61,
    "AENDY": 61,
    "AESEVN": 3,
    "CQ01NAM": null,
    "AOCCFL": null,
    "AOCCSFL": null,
    "AOCCPFL": "Y"
  },
  {
    "STUDYID": "CDISCPILOT01",
    "DOMAIN": "AE",
    "USUBJID": "01-701-1239",
    "AESEQ": 4,
    "AESPID": "E13",
    "AETERM": "APPLICATION SITE IRRITATION",
    "AELLT": "APPLICATION SITE IRRITATION",
    "AELLTCD": null,
    "AEDECOD": "APPLICATION SITE IRRITATION",
    "AEPTCD": null,
    "AEHLT": "HLT_0061",
    "AEHLTCD": null,
    "AEHLGT": "HLGT_0346",
    "AEHLGTCD": null,
    "AEBODSYS": "GENERAL DISORDERS AND ADMINISTRATION SITE CONDITIONS",
    "AEBDSYCD": null,
    "AESOC": "GENERAL DISORDERS AND ADMINISTRATION SITE CONDITIONS",
    "AESOCCD": null,
    "AESEV": "MILD",
    "AESER": "N",
    "AEACN": "",
    "AEREL": "PROBABLE",
    "AEOUT": "NOT RECOVERED/NOT RESOLVED",
    "AESCAN": "N",
    "AESCONG": "N",
    "AESDISAB": "N",
    "AESDTH": "N",
    "AESHOSP": "N",
    "AESLIFE": "N",
    "AESOD": "N",
    "AEDTC": "2014-01-25",
    "AESTDTC": "2014-01-20",
    "AEENDTC": "2014-02-08",
    "AESTDY": 10,
    "AEENDY": 29,
    "AETRTEM": "Y",
    "ASTDT": "2014-01-20",
    "AENDT": "2014-02-08",
    "SITEID": "701",
    "TRT01P": "Xanomeline High Dose",
    "TRT01A": "Xanomeline High Dose",
    "TRT01PN": 2,
    "TRT01AN": 2,
    "TRTSDT": "2014-01-11",
    "TRTEDT": "2014-07-10",
    "AGE": 56,
    "AGEGR1": "<65",
    "SEX": "M",
    "RACE": "WHITE",
    "SAFFL": "Y",
    "ITTFL": "Y",
    "EFFFL": "Y",
    "TRTP": "Xanomeline High Dose",
    "TRTA": "Xanomeline High Dose",
    "TRTPN": 2,
    "TRTAN": 2,
    "TRTEMFL": "Y",
    "ASTDY": 10,
    "AENDY": 29,
    "AESEVN": 1,
    "CQ01NAM": null,
    "AOCCFL": null,
    "AOCCSFL": "Y",
    "AOCCPFL": "Y"
  },
  {
    "STUDYID": "CDISCPILOT01",
    "DOMAIN": "AE",
    "USUBJID": "01-701-1239",
    "AESEQ": 5,
    "AESPID": "E13",
    "AETERM": "APPLICATION SITE IRRITATION",
    "AELLT": "APPLICATION SITE IRRITATION",
    "AELLTCD": null,
    "AEDECOD": "APPLICATION SITE IRRITATION",
    "AEPTCD": null,
    "AEHLT": "HLT_0061",
    "AEHLTCD": null,
    "AEHLGT": "HLGT_0346",
    "AEHLGTCD": null,
    "AEBODSYS": "GENERAL DISORDERS AND ADMINISTRATION SITE CONDITIONS",
    "AEBDSYCD": null,
    "AESOC": "GENERAL DISORDERS AND ADMINISTRATION SITE CONDITIONS",
    "AESOCCD": null,
    "AESEV": "MILD",
    "AESER": "N",
    "AEACN": "",
    "AEREL": "PROBABLE",
    "AEOUT": "RECOVERED/RESOLVED",
    "AESCAN": "N",
    "AESCONG": "N",
    "AESDISAB": "N",
    "AESDTH": "N",
    "AESHOSP": "N",
    "AESLIFE": "N",
    "AESOD": "N",
    "AEDTC": "2014-02-10",
    "AESTDTC": "2014-01-20",
    "AEENDTC": "2014-02-08",
    "AESTDY": 10,
    "AEENDY": 29,
    "AETRTEM": "Y",
    "ASTDT": "2014-01-20",
    "AENDT": "2014-02-08",
    "SITEID": "701",
    "TRT01P": "Xanomeline High Dose",
    "TRT01A": "Xanomeline High Dose",
    "TRT01PN": 2,
    "TRT01AN": 2,
    "TRTSDT": "2014-01-11",
    "TRTEDT": "2014-07-10",
    "AGE": 56,
    "AGEGR1": "<65",
    "SEX": "M",
    "RACE": "WHITE",
    "SAFFL": "Y",
    "ITTFL": "Y",
    "EFFFL": "Y",
    "TRTP": "Xanomeline High Dose",
    "TRTA": "Xanomeline High Dose",
    "TRTPN": 2,
    "TRTAN": 2,
    "TRTEMFL": "Y",
    "ASTDY": 10,
    "AENDY": 29,
    "AESEVN": 1,
    "CQ01NAM": null,
    "AOCCFL": null,
    "AOCCSFL": null,
    "AOCCPFL": null
  },
  {
    "STUDYID": "CDISCPILOT01",
    "DOMAIN": "AE",
    "USUBJID": "01-701-1239",
    "AESEQ": 1,
    "AESPID": "E11",
    "AETERM": "ERYTHEMA",
    "AELLT": "ERYTHEMA",
    "AELLTCD": null,
    "AEDECOD": "ERYTHEMA",
    "AEPTCD": null,
    "AEHLT": "HLT_0284",
    "AEHLTCD": null,
    "AEHLGT": "HLGT_0192",
    "AEHLGTCD": null,
    "AEBODSYS": "SKIN AND SUBCUTANEOUS TISSUE DISORDERS",
    "AEBDSYCD": null,
    "AESOC": "SKIN AND SUBCUTANEOUS TISSUE DISORDERS",
    "AESOCCD": null,
    "AESEV": "MILD",
    "AESER": "N",
    "AEACN": "",
    "AEREL": "POSSIBLE",
    "AEOUT": "NOT RECOVERED/NOT RESOLVED",
    "AESCAN": "N",
    "AESCONG": "N",
    "AESDISAB": "N",
    "AESDTH": "N",
    "AESHOSP": "N",
    "AESLIFE": "N",
    "AESOD": "N",
    "AEDTC": "2014-01-25",
    "AESTDTC": "2014-01-12",
    "AEENDTC": "",
    "AESTDY": 2,
    "AEENDY": null,
    "AETRTEM": "Y",
    "ASTDT": "2014-01-12",
    "AENDT": null,
    "SITEID": "701",
    "TRT01P": "Xanomeline High Dose",
    "TRT01A": "Xanomeline High Dose",
    "TRT01PN": 2,
    "TRT01AN": 2,
    "TRTSDT": "2014-01-11",
    "TRTEDT": "2014-07-10",
    "AGE": 56,
    "AGEGR1": "<65",
    "SEX": "M",
    "RACE": "WHITE",
    "SAFFL": "Y",
    "ITTFL": "Y",
    "EFFFL": "Y",
    "TRTP": "Xanomeline High Dose",
    "TRTA": "Xanomeline High Dose",
    "TRTPN": 2,
    "TRTAN": 2,
    "TRTEMFL": "Y",
    "ASTDY": 2,
    "AENDY": null,
    "AESEVN": 1,
    "CQ01NAM": "DERMATOLOGICAL EVENTS",
    "AOCCFL": "Y",
    "AOCCSFL": "Y",
    "AOCCPFL": "Y"
  },
  {
    "STUDYID": "CDISCPILOT01",
    "DOMAIN": "AE",
    "USUBJID": "01-701-1239",
    "AESEQ": 6,
    "AESPID": "E11",
    "AETERM": "ERYTHEMA",
    "AELLT": "ERYTHEMA",
    "AELLTCD": null,
    "AEDECOD": "ERYTHEMA",
    "AEPTCD": null,
    "AEHLT": "HLT_0284",
    "AEHLTCD": null,
    "AEHLGT": "HLGT_0192",
    "AEHLGTCD": null,
    "AEBODSYS": "SKIN AND SUBCUTANEOUS TISSUE DISORDERS",
    "AEBDSYCD": null,
    "AESOC": "SKIN AND SUBCUTANEOUS TISSUE DISORDERS",
    "AESOCCD": null,
    "AESEV": "MODERATE",
    "AESER": "N",
    "AEACN": "",
    "AEREL": "POSSIBLE",
    "AEOUT": "NOT RECOVERED/NOT RESOLVED",
    "AESCAN": "N",
    "AESCONG": "N",
    "AESDISAB": "N",
    "AESDTH": "N",
    "AESHOSP": "N",
    "AESLIFE": "N",
    "AESOD": "N",
    "AEDTC": "2014-02-19",
    "AESTDTC": "2014-01-12",
    "AEENDTC": "",
    "AESTDY": 2,
    "AEENDY": null,
    "AETRTEM": "Y",
    "ASTDT": "2014-01-12",
    "AENDT": null,
    "SITEID": "701",
    "TRT01P": "Xanomeline High Dose",
    "TRT01A": "Xanomeline High Dose",
    "TRT01PN": 2,
    "TRT01AN": 2,
    "TRTSDT": "2014-01-11",
    "TRTEDT": "2014-07-10",
    "AGE": 56,
    "AGEGR1": "<65",
    "SEX": "M",
    "RACE": "WHITE",
    "SAFFL": "Y",
    "ITTFL": "Y",
    "EFFFL": "Y",
    "TRTP": "Xanomeline High Dose",
    "TRTA": "Xanomeline High Dose",
    "TRTPN": 2,
    "TRTAN": 2,
    "TRTEMFL": "Y",
    "ASTDY": 2,
    "AENDY": null,
    "AESEVN": 2,
    "CQ01NAM": "DERMATOLOGICAL EVENTS",
    "AOCCFL": null,
    "AOCCSFL": null,
    "AOCCPFL": null
  },
  {
    "STUDYID": "CDISCPILOT01",
    "DOMAIN": "AE",
    "USUBJID": "01-701-1239",
    "AESEQ": 9,
    "AESPID": "E16",
    "AETERM": "FATIGUE",
    "AELLT": "FATIGUE",
    "AELLTCD": null,
    "AEDECOD": "FATIGUE",
    "AEPTCD": null,
    "AEHLT": "HLT_0043",
    "AEHLTCD": null,
    "AEHLGT": "HLGT_0181",
    "AEHLGTCD": null,
    "AEBODSYS": "GENERAL DISORDERS AND ADMINISTRATION SITE CONDITIONS",
    "AEBDSYCD": null,
    "AESOC": "GENERAL DISORDERS AND ADMINISTRATION SITE CONDITIONS",
    "AESOCCD": null,
    "AESEV": "MILD",
    "AESER": "N",
    "AEACN": "",
    "AEREL": "REMOTE",
    "AEOUT": "NOT RECOVERED/NOT RESOLVED",
    "AESCAN": "N",
    "AESCONG": "N",
    "AESDISAB": "N",
    "AESDTH": "N",
    "AESHOSP": "N",
    "AESLIFE": "N",
    "AESOD": "N",
    "AEDTC": "2014-04-02",
    "AESTDTC": "2014-03",
    "AEENDTC": "",
    "AESTDY": null,
    "AEENDY": null,
    "AETRTEM": "Y",
    "ASTDT": null,
    "AENDT": null,
    "SITEID": "701",
    "TRT01P": "Xanomeline High Dose",
    "TRT01A": "Xanomeline High Dose",
    "TRT01PN": 2,
    "TRT01AN": 2,
    "TRTSDT": "2014-01-11",
    "TRTEDT": "2014-07-10",
    "AGE": 56,
    "AGEGR1": "<65",
    "SEX": "M",
    "RACE": "WHITE",
    "SAFFL": "Y",
    "ITTFL": "Y",
    "EFFFL": "Y",
    "TRTP": "Xanomeline High Dose",
    "TRTA": "Xanomeline High Dose",
    "TRTPN": 2,
    "TRTAN": 2,
    "TRTEMFL": null,
    "ASTDY": null,
    "AENDY": null,
    "AESEVN": 1,
    "CQ01NAM": null,
    "AOCCFL": null,
    "AOCCSFL": null,
    "AOCCPFL": null
  },
  {
    "STUDYID": "CDISCPILOT01",
    "DOMAIN": "AE",
    "USUBJID": "01-701-1239",
    "AESEQ": 10,
    "AESPID": "E17",
    "AETERM": "HORDEOLUM",
    "AELLT": "STYE",
    "AELLTCD": null,
    "AEDECOD": "HORDEOLUM",
    "AEPTCD": null,
    "AEHLT": "HLT_0604",
    "AEHLTCD": null,
    "AEHLGT": "HLGT_0290",
    "AEHLGTCD": null,
    "AEBODSYS": "INFECTIONS AND INFESTATIONS",
    "AEBDSYCD": null,
    "AESOC": "INFECTIONS AND INFESTATIONS",
    "AESOCCD": null,
    "AESEV": "MILD",
    "AESER": "N",
    "AEACN": "",
    "AEREL": "NONE",
    "AEOUT": "NOT RECOVERED/NOT RESOLVED",
    "AESCAN": "N",
    "AESCONG": "N",
    "AESDISAB": "N",
    "AESDTH": "N",
    "AESHOSP": "N",
    "AESLIFE": "N",
    "AESOD": "N",
    "AEDTC": "2014-05-02",
    "AESTDTC": "2014-04",
    "AEENDTC": "",
    "AESTDY": null,
    "AEENDY": null,
    "AETRTEM": "Y",
    "ASTDT": null,
    "AENDT": null,
    "SITEID": "701",
    "TRT01P": "Xanomeline High Dose",
    "TRT01A": "Xanomeline High Dose",
    "TRT01PN": 2,
    "TRT01AN": 2,
    "TRTSDT": "2014-01-11",
    "TRTEDT": "2014-07-10",
    "AGE": 56,
    "AGEGR1": "<65",
    "SEX": "M",
    "RACE": "WHITE",
    "SAFFL": "Y",
    "ITTFL": "Y",
    "EFFFL": "Y",
    "TRTP": "Xanomeline High Dose",
    "TRTA": "Xanomeline High Dose",
    "TRTPN": 2,
    "TRTAN": 2,
    "TRTEMFL": null,
    "ASTDY": null,
    "AENDY": null,
    "AESEVN": 1,
    "CQ01NAM": null,
    "AOCCFL": null,
    "AOCCSFL": null,
    "AOCCPFL": null
  },
  {
    "STUDYID": "CDISCPILOT01",
    "DOMAIN": "AE",
    "USUBJID": "01-701-1239",
    "AESEQ": 3,
    "AESPID": "E12",
    "AETERM": "PRURITUS",
    "AELLT": "ITCHING",
    "AELLTCD": null,
    "AEDECOD": "PRURITUS",
    "AEPTCD": null,
    "AEHLT": "HLT_0778",
    "AEHLTCD": null,
    "AEHLGT": "HLGT_0695",
    "AEHLGTCD": null,
    "AEBODSYS": "SKIN AND SUBCUTANEOUS TISSUE DISORDERS",
    "AEBDSYCD": null,
    "AESOC": "SKIN AND SUBCUTANEOUS TISSUE DISORDERS",
    "AESOCCD": null,
    "AESEV": "MILD",
    "AESER": "N",
    "AEACN": "",
    "AEREL": "POSSIBLE",
    "AEOUT": "NOT RECOVERED/NOT RESOLVED",
    "AESCAN": "N",
    "AESCONG": "N",
    "AESDISAB": "N",
    "AESDTH": "N",
    "AESHOSP": "N",
    "AESLIFE": "N",
    "AESOD": "N",
    "AEDTC": "2014-01-25",
    "AESTDTC": "2014-01-13",
    "AEENDTC": "",
    "AESTDY": 3,
    "AEENDY": null,
    "AETRTEM": "Y",
    "ASTDT": "2014-01-13",
    "AENDT": null,
    "SITEID": "701",
    "TRT01P": "Xanomeline High Dose",
    "TRT01A": "Xanomeline High Dose",
    "TRT01PN": 2,
    "TRT01AN": 2,
    "TRTSDT": "2014-01-11",
    "TRTEDT": "2014-07-10",
    "AGE": 56,
    "AGEGR1": "<65",
    "SEX": "M",
    "RACE": "WHITE",
    "SAFFL": "Y",
    "ITTFL": "Y",
    "EFFFL": "Y",
    "TRTP": "Xanomeline High Dose",
    "TRTA": "Xanomeline High Dose",
    "TRTPN": 2,
    "TRTAN": 2,
    "TRTEMFL": "Y",
    "ASTDY": 3,
    "AENDY": null,
    "AESEVN": 1,
    "CQ01NAM": "DERMATOLOGICAL EVENTS",
    "AOCCFL": null,
    "AOCCSFL": null,
    "AOCCPFL": "Y"
  },
  {
    "STUDYID": "CDISCPILOT01",
    "DOMAIN": "AE",
    "USUBJID": "01-701-1239",
    "AESEQ": 2,
    "AESPID": "E15",
    "AETERM": "SKIN ODOUR ABNORMAL",
    "AELLT": "SKIN ODOR ABNORMAL",
    "AELLTCD": null,
    "AEDECOD": "SKIN ODOUR ABNORMAL",
    "AEPTCD": null,
    "AEHLT": "HLT_0510",
    "AEHLTCD": null,
    "AEHLGT": "HLGT_0184",
    "AEHLGTCD": null,
    "AEBODSYS": "SKIN AND SUBCUTANEOUS TISSUE DISORDERS",
    "AEBDSYCD": null,
    "AESOC": "SKIN AND SUBCUTANEOUS TISSUE DISORDERS",
    "AESOCCD": null,
    "AESEV": "MILD",
    "AESER": "N",
    "AEACN": "",
    "AEREL": "REMOTE",
    "AEOUT": "NOT RECOVERED/NOT RESOLVED",
    "AESCAN": "N",
    "AESCONG": "N",
    "AESDISAB": "N",
    "AESDTH": "N",
    "AESHOSP": "N",
    "AESLIFE": "N",
    "AESOD": "N",
    "AEDTC": "2014-01-25",
    "AESTDTC": "2014-01-12",
    "AEENDTC": "",
    "AESTDY": 2,
    "AEENDY": null,
    "AETRTEM": "Y",
    "ASTDT": "2014-01-12",
    "AENDT": null,
    "SITEID": "701",
    "TRT01P": "Xanomeline High Dose",
    "TRT01A": "Xanomeline High Dose",
    "TRT01PN": 2,
    "TRT01AN": 2,
    "TRTSDT": "2014-01-11",
    "TRTEDT": "2014-07-10",
    "AGE": 56,
    "AGEGR1": "<65",
    "SEX": "M",
    "RACE": "WHITE",
    "SAFFL": "Y",
    "ITTFL": "Y",
    "EFFFL": "Y",
    "TRTP": "Xanomeline High Dose",
    "TRTA": "Xanomeline High Dose",
    "TRTPN": 2,
    "TRTAN": 2,
    "TRTEMFL": "Y",
    "ASTDY": 2,
    "AENDY": null,
    "AESEVN": 1,
    "CQ01NAM": "DERMATOLOGICAL EVENTS",
    "AOCCFL": null,
    "AOCCSFL": null,
    "AOCCPFL": "Y"
  },
  {
    "STUDYID": "CDISCPILOT01",
    "DOMAIN": "AE",
    "USUBJID": "01-701-1239",
    "AESEQ": 7,
    "AESPID": "E14",
    "AETERM": "UPPER RESPIRATORY TRACT INFECTION",
    "AELLT": "UPPER RESPIRATORY INFECTION",
    "AELLTCD": null,
    "AEDECOD": "UPPER RESPIRATORY TRACT INFECTION",
    "AEPTCD": null,
    "AEHLT": "HLT_0520",
    "AEHLTCD": null,
    "AEHLGT": "HLGT_0489",
    "AEHLGTCD": null,
    "AEBODSYS": "INFECTIONS AND INFESTATIONS",
    "AEBDSYCD": null,
    "AESOC": "INFECTIONS AND INFESTATIONS",
    "AESOCCD": null,
    "AESEV": "MILD",
    "AESER": "N",
    "AEACN": "",
    "AEREL": "NONE",
    "AEOUT": "NOT RECOVERED/NOT RESOLVED",
    "AESCAN": "N",
    "AESCONG": "N",
    "AESDISAB": "N",
    "AESDTH": "N",
    "AESHOSP": "N",
    "AESLIFE": "N",
