[
  {
    "STUDYID": "CDISCPILOT01",
    "USUBJID": "01-701-1015",
    "SITEID": "701",
    "TRT01P": "Placebo",
    "TRT01A": "Placebo",
    "TRT01PN": 0,
    "TRTP": "Placebo",
    "TRTA": "Placebo",
    "TRTSDT": "2014-01-02",
    "TRTEDT": "2014-07-02",
    "SAFFL": "Y",
    "ITTFL": "Y",
    "PARAMCD": "AVGDD",
    "PARAM": "Average Daily Dose (mg)",
    "PARAMN": 1,
    "AVAL": 0,
    "AVISIT": "End of Study",
    "AVISITN": 99
  },
  {
    "STUDYID": "CDISCPILOT01",
    "USUBJID": "01-701-1023",
    "SITEID": "701",
    "TRT01P": "Placebo",
    "TRT01A": "Placebo",
    "TRT01PN": 0,
    "TRTP": "Placebo",
    "TRTA": "Placebo",
    "TRTSDT": "2012-08-05",
    "TRTEDT": "2012-09-01",
    "SAFFL": "Y",
    "ITTFL": "Y",
    "PARAMCD": "AVGDD",
    "PARAM": "Average Daily Dose (mg)",
    "PARAMN": 1,
    "AVAL": 0,
    "AVISIT": "End of Study",
    "AVISITN": 99
  },
  {
    "STUDYID": "CDISCPILOT01",
    "USUBJID": "01-701-1028",
    "SITEID": "701",
    "TRT01P": "Xanomeline High Dose",
    "TRT01A": "Xanomeline High Dose",
    "TRT01PN": 2,
    "TRTP": "Xanomeline High Dose",
    "TRTA": "Xanomeline High Dose",
    "TRTSDT": "2013-07-19",
    "TRTEDT": "2014-01-14",
    "SAFFL": "Y",
    "ITTFL": "Y",
    "PARAMCD": "AVGDD",
    "PARAM": "Average Daily Dose (mg)",
    "PARAMN": 1,
    "AVAL": 77.7,
    "AVISIT": "End of Study",
    "AVISITN": 99
  },
  {
    "STUDYID": "CDISCPILOT01",
    "USUBJID": "01-701-1033",
    "SITEID": "701",
    "TRT01P": "Xanomeline Low Dose",
    "TRT01A": "Xanomeline Low Dose",
    "TRT01PN": 1,
    "TRTP": "Xanomeline Low Dose",
    "TRTA": "Xanomeline Low Dose",
    "TRTSDT": "2014-03-18",
    "TRTEDT": "2014-03-31",
    "SAFFL": "Y",
    "ITTFL": "Y",
    "PARAMCD": "AVGDD",
    "PARAM": "Average Daily Dose (mg)",
    "PARAMN": 1,
    "AVAL": 54,
    "AVISIT": "End of Study",
    "AVISITN": 99
  },
  {
    "STUDYID": "CDISCPILOT01",
    "USUBJID": "01-701-1034",
    "SITEID": "701",
    "TRT01P": "Xanomeline High Dose",
    "TRT01A": "Xanomeline High Dose",
    "TRT01PN": 2,
    "TRTP": "Xanomeline High Dose",
    "TRTA": "Xanomeline High Dose",
    "TRTSDT": "2014-07-01",
    "TRTEDT": "2014-12-30",
    "SAFFL": "Y",
    "ITTFL": "Y",
    "PARAMCD": "AVGDD",
    "PARAM": "Average Daily Dose (mg)",
    "PARAMN": 1,
    "AVAL": 76.9,
    "AVISIT": "End of Study",
    "AVISITN": 99
  },
  {
    "STUDYID": "CDISCPILOT01",
    "USUBJID": "01-701-1047",
    "SITEID": "701",
    "TRT01P": "Placebo",
    "TRT01A": "Placebo",
    "TRT01PN": 0,
    "TRTP": "Placebo",
    "TRTA": "Placebo",
    "TRTSDT": "2013-02-12",
    "TRTEDT": "2013-03-09",
    "SAFFL": "Y",
    "ITTFL": "Y",
    "PARAMCD": "AVGDD",
    "PARAM": "Average Daily Dose (mg)",
    "PARAMN": 1,
    "AVAL": 0,
    "AVISIT": "End of Study",
    "AVISITN": 99
  },
  {
    "STUDYID": "CDISCPILOT01",
    "USUBJID": "01-701-1097",
    "SITEID": "701",
    "TRT01P": "Xanomeline Low Dose",
    "TRT01A": "Xanomeline Low Dose",
    "TRT01PN": 1,
    "TRTP": "Xanomeline Low Dose",
    "TRTA": "Xanomeline Low Dose",
    "TRTSDT": "2014-01-01",
    "TRTEDT": "2014-07-09",
    "SAFFL": "Y",
    "ITTFL": "Y",
    "PARAMCD": "AVGDD",
    "PARAM": "Average Daily Dose (mg)",
    "PARAMN": 1,
    "AVAL": 54,
    "AVISIT": "End of Study",
    "AVISITN": 99
  },
  {
    "STUDYID": "CDISCPILOT01",
    "USUBJID": "01-701-1111",
    "SITEID": "701",
    "TRT01P": "Xanomeline Low Dose",
    "TRT01A": "Xanomeline Low Dose",
    "TRT01PN": 1,
    "TRTP": "Xanomeline Low Dose",
    "TRTA": "Xanomeline Low Dose",
    "TRTSDT": "2012-09-07",
    "TRTEDT": "2012-09-16",
    "SAFFL": "Y",
    "ITTFL": "Y",
    "PARAMCD": "AVGDD",
    "PARAM": "Average Daily Dose (mg)",
    "PARAMN": 1,
    "AVAL": 54,
    "AVISIT": "End of Study",
    "AVISITN": 99
  },
  {
    "STUDYID": "CDISCPILOT01",
    "USUBJID": "01-701-1115",
    "SITEID": "701",
    "TRT01P": "Xanomeline Low Dose",
    "TRT01A": "Xanomeline Low Dose",
    "TRT01PN": 1,
    "TRTP": "Xanomeline Low Dose",
    "TRTA": "Xanomeline Low Dose",
    "TRTSDT": "2012-11-30",
    "TRTEDT": "2013-01-23",
    "SAFFL": "Y",
    "ITTFL": "Y",
    "PARAMCD": "AVGDD",
    "PARAM": "Average Daily Dose (mg)",
    "PARAMN": 1,
    "AVAL": 54,
    "AVISIT": "End of Study",
    "AVISITN": 99
  },
  {
    "STUDYID": "CDISCPILOT01",
    "USUBJID": "01-701-1118",
    "SITEID": "701",
    "TRT01P": "Placebo",
    "TRT01A": "Placebo",
    "TRT01PN": 0,
    "TRTP": "Placebo",
    "TRTA": "Placebo",
    "TRTSDT": "2014-03-12",
    "TRTEDT": "2014-09-09",
    "SAFFL": "Y",
    "ITTFL": "Y",
    "PARAMCD": "AVGDD",
    "PARAM": "Average Daily Dose (mg)",
    "PARAMN": 1,
    "AVAL": 0,
    "AVISIT": "End of Study",
    "AVISITN": 99
  },
  {
    "STUDYID": "CDISCPILOT01",
    "USUBJID": "01-701-1130",
    "SITEID": "701",
    "TRT01P": "Placebo",
    "TRT01A": "Placebo",
    "TRT01PN": 0,
    "TRTP": "Placebo",
    "TRTA": "Placebo",
    "TRTSDT": "2014-02-15",
    "TRTEDT": "2014-08-16",
    "SAFFL": "Y",
    "ITTFL": "Y",
    "PARAMCD": "AVGDD",
    "PARAM": "Average Daily Dose (mg)",
    "PARAMN": 1,
    "AVAL": 0,
    "AVISIT": "End of Study",
    "AVISITN": 99
  },
  {
    "STUDYID": "CDISCPILOT01",
    "USUBJID": "01-701-1133",
    "SITEID": "701",
    "TRT01P": "Xanomeline High Dose",
    "TRT01A": "Xanomeline High Dose",
    "TRT01PN": 2,
    "TRTP": "Xanomeline High Dose",
    "TRTA": "Xanomeline High Dose",
    "TRTSDT": "2012-10-28",
    "TRTEDT": "2013-04-28",
    "SAFFL": "Y",
    "ITTFL": "Y",
    "PARAMCD": "AVGDD",
    "PARAM": "Average Daily Dose (mg)",
    "PARAMN": 1,
    "AVAL": 77.2,
    "AVISIT": "End of Study",
    "AVISITN": 99
  },
  {
    "STUDYID": "CDISCPILOT01",
    "USUBJID": "01-701-1146",
    "SITEID": "701",
    "TRT01P": "Xanomeline High Dose",
    "TRT01A": "Xanomeline High Dose",
    "TRT01PN": 2,
    "TRTP": "Xanomeline High Dose",
    "TRTA": "Xanomeline High Dose",
    "TRTSDT": "2013-05-20",
    "TRTEDT": "2013-06-26",
    "SAFFL": "Y",
    "ITTFL": "Y",
    "PARAMCD": "AVGDD",
    "PARAM": "Average Daily Dose (mg)",
    "PARAMN": 1,
    "AVAL": 70.3,
    "AVISIT": "End of Study",
    "AVISITN": 99
  },
  {
    "STUDYID": "CDISCPILOT01",
    "USUBJID": "01-701-1148",
    "SITEID": "701",
    "TRT01P": "Xanomeline High Dose",
    "TRT01A": "Xanomeline High Dose",
    "TRT01PN": 2,
    "TRTP": "Xanomeline High Dose",
    "TRTA": "Xanomeline High Dose",
    "TRTSDT": "2013-08-23",
    "TRTEDT": "2014-02-20",
    "SAFFL": "Y",
    "ITTFL": "Y",
    "PARAMCD": "AVGDD",
    "PARAM": "Average Daily Dose (mg)",
    "PARAMN": 1,
    "AVAL": 77.1,
    "AVISIT": "End of Study",
    "AVISITN": 99
  },
  {
    "STUDYID": "CDISCPILOT01",
    "USUBJID": "01-701-1153",
    "SITEID": "701",
    "TRT01P": "Placebo",
    "TRT01A": "Placebo",
    "TRT01PN": 0,
    "TRTP": "Placebo",
    "TRTA": "Placebo",
    "TRTSDT": "2013-09-23",
    "TRTEDT": "2014-03-16",
    "SAFFL": "Y",
    "ITTFL": "Y",
    "PARAMCD": "AVGDD",
    "PARAM": "Average Daily Dose (mg)",
    "PARAMN": 1,
    "AVAL": 0,
    "AVISIT": "End of Study",
    "AVISITN": 99
  },
  {
    "STUDYID": "CDISCPILOT01",
    "USUBJID": "01-701-1180",
    "SITEID": "701",
    "TRT01P": "Xanomeline High Dose",
    "TRT01A": "Xanomeline High Dose",
    "TRT01PN": 2,
    "TRTP": "Xanomeline High Dose",
    "TRTA": "Xanomeline High Dose",
    "TRTSDT": "2013-02-12",
    "TRTEDT": "2013-03-18",
    "SAFFL": "Y",
    "ITTFL": "Y",
    "PARAMCD": "AVGDD",
    "PARAM": "Average Daily Dose (mg)",
    "PARAMN": 1,
    "AVAL": 70.2,
    "AVISIT": "End of Study",
    "AVISITN": 99
  },
  {
    "STUDYID": "CDISCPILOT01",
    "USUBJID": "01-701-1181",
    "SITEID": "701",
    "TRT01P": "Xanomeline High Dose",
    "TRT01A": "Xanomeline Low Dose",
    "TRT01PN": 2,
    "TRTP": "Xanomeline High Dose",
    "TRTA": "Xanomeline Low Dose",
    "TRTSDT": "2013-12-05",
    "TRTEDT": "2013-12-09",
    "SAFFL": "Y",
    "ITTFL": "Y",
    "PARAMCD": "AVGDD",
    "PARAM": "Average Daily Dose (mg)",
    "PARAMN": 1,
    "AVAL": 54,
    "AVISIT": "End of Study",
    "AVISITN": 99
  },
  {
    "STUDYID": "CDISCPILOT01",
    "USUBJID": "01-701-1188",
    "SITEID": "701",
    "TRT01P": "Xanomeline Low Dose",
    "TRT01A": "Xanomeline Low Dose",
    "TRT01PN": 1,
    "TRTP": "Xanomeline Low Dose",
    "TRTA": "Xanomeline Low Dose",
    "TRTSDT": "2013-02-15",
    "TRTEDT": "2013-03-24",
    "SAFFL": "Y",
    "ITTFL": "Y",
    "PARAMCD": "AVGDD",
    "PARAM": "Average Daily Dose (mg)",
    "PARAMN": 1,
    "AVAL": 54,
    "AVISIT": "End of Study",
    "AVISITN": 99
  },
  {
    "STUDYID": "CDISCPILOT01",
    "USUBJID": "01-701-1192",
    "SITEID": "701",
    "TRT01P": "Xanomeline Low Dose",
    "TRT01A": "Xanomeline Low Dose",
    "TRT01PN": 1,
    "TRTP": "Xanomeline Low Dose",
    "TRTA": "Xanomeline Low Dose",
    "TRTSDT": "2012-07-22",
    "TRTEDT": "2013-01-20",
    "SAFFL": "Y",
    "ITTFL": "Y",
    "PARAMCD": "AVGDD",
    "PARAM": "Average Daily Dose (mg)",
    "PARAMN": 1,
    "AVAL": 54,
    "AVISIT": "End of Study",
    "AVISITN": 99
  },
  {
    "STUDYID": "CDISCPILOT01",
    "USUBJID": "01-701-1203",
    "SITEID": "701",
    "TRT01P": "Placebo",
    "TRT01A": "Placebo",
    "TRT01PN": 0,
    "TRTP": "Placebo",
    "TRTA": "Placebo",
    "TRTSDT": "2013-02-02",
    "TRTEDT": "2013-08-03",
    "SAFFL": "Y",
    "ITTFL": "Y",
    "PARAMCD": "AVGDD",
    "PARAM": "Average Daily Dose (mg)",
    "PARAMN": 1,
    "AVAL": 0,
    "AVISIT": "End of Study",
    "AVISITN": 99
  },
  {
    "STUDYID": "CDISCPILOT01",
    "USUBJID": "01-701-1211",
    "SITEID": "701",
    "TRT01P": "Xanomeline Low Dose",
    "TRT01A": "Xanomeline Low Dose",
    "TRT01PN": 1,
    "TRTP": "Xanomeline Low Dose",
    "TRTA": "Xanomeline Low Dose",
    "TRTSDT": "2012-11-15",
    "TRTEDT": "2013-01-12",
    "SAFFL": "Y",
    "ITTFL": "Y",
    "PARAMCD": "AVGDD",
    "PARAM": "Average Daily Dose (mg)",
    "PARAMN": 1,
    "AVAL": 54,
    "AVISIT": "End of Study",
    "AVISITN": 99
  },
  {
    "STUDYID": "CDISCPILOT01",
    "USUBJID": "01-701-1234",
    "SITEID": "701",
    "TRT01P": "Placebo",
    "TRT01A": "Placebo",
    "TRT01PN": 0,
    "TRTP": "Placebo",
    "TRTA": "Placebo",
    "TRTSDT": "2013-03-30",
    "TRTEDT": "2013-09-22",
    "SAFFL": "Y",
    "ITTFL": "Y",
    "PARAMCD": "AVGDD",
    "PARAM": "Average Daily Dose (mg)",
    "PARAMN": 1,
    "AVAL": 0,
    "AVISIT": "End of Study",
    "AVISITN": 99
  },
  {
    "STUDYID": "CDISCPILOT01",
    "USUBJID": "01-701-1239",
    "SITEID": "701",
    "TRT01P": "Xanomeline High Dose",
    "TRT01A": "Xanomeline High Dose",
    "TRT01PN": 2,
    "TRTP": "Xanomeline High Dose",
    "TRTA": "Xanomeline High Dose",
    "TRTSDT": "2014-01-11",
    "TRTEDT": "2014-07-10",
    "SAFFL": "Y",
    "ITTFL": "Y",
    "PARAMCD": "AVGDD",
    "PARAM": "Average Daily Dose (mg)",
    "PARAMN": 1,
    "AVAL": 76.8,
    "AVISIT": "End of Study",
    "AVISITN": 99
  },
  {
    "STUDYID": "CDISCPILOT01",
    "USUBJID": "01-701-1275",
    "SITEID": "701",
    "TRT01P": "Xanomeline High Dose",
    "TRT01A": "Xanomeline High Dose",
    "TRT01PN": 2,
    "TRTP": "Xanomeline High Dose",
    "TRTA": "Xanomeline High Dose",
    "TRTSDT": "2014-02-07",
    "TRTEDT": "2014-05-31",
    "SAFFL": "Y",
    "ITTFL": "Y",
    "PARAMCD": "AVGDD",
    "PARAM": "Average Daily Dose (mg)",
    "PARAMN": 1,
    "AVAL": 77.2,
    "AVISIT": "End of Study",
    "AVISITN": 99
  },
  {
    "STUDYID": "CDISCPILOT01",
    "USUBJID": "01-701-1287",
    "SITEID": "701",
    "TRT01P": "Xanomeline High Dose",
    "TRT01A": "Xanomeline High Dose",
    "TRT01PN": 2,
    "TRTP": "Xanomeline High Dose",
    "TRTA": "Xanomeline High Dose",
    "TRTSDT": "2014-01-25",
    "TRTEDT": "2014-07-26",
    "SAFFL": "Y",
    "ITTFL": "Y",
    "PARAMCD": "AVGDD",
    "PARAM": "Average Daily Dose (mg)",
    "PARAMN": 1,
    "AVAL": 76.3,
    "AVISIT": "End of Study",
    "AVISITN": 99
  },
  {
    "STUDYID": "CDISCPILOT01",
    "USUBJID": "01-701-1294",
    "SITEID": "701",
    "TRT01P": "Xanomeline Low Dose",
    "TRT01A": "Xanomeline Low Dose",
    "TRT01PN": 1,
    "TRTP": "Xanomeline Low Dose",
    "TRTA": "Xanomeline Low Dose",
    "TRTSDT": "2013-03-24",
    "TRTEDT": "2013-06-14",
    "SAFFL": "Y",
    "ITTFL": "Y",
    "PARAMCD": "AVGDD",
    "PARAM": "Average Daily Dose (mg)",
    "PARAMN": 1,
    "AVAL": 54,
    "AVISIT": "End of Study",
    "AVISITN": 99
  },
  {
    "STUDYID": "CDISCPILOT01",
    "USUBJID": "01-701-1302",
    "SITEID": "701",
    "TRT01P": "Xanomeline High Dose",
    "TRT01A": "Xanomeline High Dose",
    "TRT01PN": 2,
    "TRTP": "Xanomeline High Dose",
    "TRTA": "Xanomeline High Dose",
    "TRTSDT": "2013-08-29",
    "TRTEDT": "2013-11-05",
    "SAFFL": "Y",
    "ITTFL": "Y",
    "PARAMCD": "AVGDD",
    "PARAM": "Average Daily Dose (mg)",
    "PARAMN": 1,
    "AVAL": 74,
    "AVISIT": "End of Study",
    "AVISITN": 99
  },
  {
    "STUDYID": "CDISCPILOT01",
    "USUBJID": "01-701-1317",
    "SITEID": "701",
    "TRT01P": "Xanomeline Low Dose",
    "TRT01A": "Xanomeline Low Dose",
    "TRT01PN": 1,
    "TRTP": "Xanomeline Low Dose",
    "TRTA": "Xanomeline Low Dose",
    "TRTSDT": "2014-05-22",
    "TRTEDT": "2014-11-20",
    "SAFFL": "Y",
    "ITTFL": "Y",
    "PARAMCD": "AVGDD",
    "PARAM": "Average Daily Dose (mg)",
    "PARAMN": 1,
    "AVAL": 54,
    "AVISIT": "End of Study",
    "AVISITN": 99
  },
  {
    "STUDYID": "CDISCPILOT01",
    "USUBJID": "01-701-1324",
    "SITEID": "701",
    "TRT01P": "Xanomeline Low Dose",
    "TRT01A": "Xanomeline Low Dose",
    "TRT01PN": 1,
    "TRTP": "Xanomeline Low Dose",
    "TRTA": "Xanomeline Low Dose",
    "TRTSDT": "2012-10-02",
    "TRTEDT": "2013-04-02",
    "SAFFL": "Y",
    "ITTFL": "Y",
    "PARAMCD": "AVGDD",
    "PARAM": "Average Daily Dose (mg)",
    "PARAMN": 1,
    "AVAL": 54,
    "AVISIT": "End of Study",
    "AVISITN": 99
  },
  {
    "STUDYID": "CDISCPILOT01",
    "USUBJID": "01-701-1341",
    "SITEID": "701",
    "TRT01P": "Xanomeline Low Dose",
    "TRT01A": "Xanomeline Low Dose",
    "TRT01PN": 1,
    "TRTP": "Xanomeline Low Dose",
    "TRTA": "Xanomeline Low Dose",
    "TRTSDT": "2013-01-05",
    "TRTEDT": "2013-01-26",
    "SAFFL": "Y",
    "ITTFL": "Y",
    "PARAMCD": "AVGDD",
    "PARAM": "Average Daily Dose (mg)",
    "PARAMN": 1,
    "AVAL": 54,
    "AVISIT": "End of Study",
    "AVISITN": 99
  },
  {
    "STUDYID": "CDISCPILOT01",
    "USUBJID": "01-701-1345",
    "SITEID": "701",
    "TRT01P": "Placebo",
    "TRT01A": "Placebo",
    "TRT01PN": 0,
    "TRTP": "Placebo",
    "TRTA": "Placebo",
    "TRTSDT": "2013-10-08",
    "TRTEDT": "2014-03-18",
    "SAFFL": "Y",
    "ITTFL": "Y",
    "PARAMCD": "AVGDD",
    "PARAM": "Average Daily Dose (mg)",
    "PARAMN": 1,
    "AVAL": 0,
    "AVISIT": "End of Study",
    "AVISITN": 99
  },
  {
    "STUDYID": "CDISCPILOT01",
    "USUBJID": "01-701-1360",
    "SITEID": "701",
    "TRT01P": "Xanomeline High Dose",
    "TRT01A": "Xanomeline Low Dose",
    "TRT01PN": 2,
    "TRTP": "Xanomeline High Dose",
    "TRTA": "Xanomeline Low Dose",
    "TRTSDT": "2013-07-31",
    "TRTEDT": "2013-08-05",
    "SAFFL": "Y",
    "ITTFL": "Y",
    "PARAMCD": "AVGDD",
    "PARAM": "Average Daily Dose (mg)",
    "PARAMN": 1,
    "AVAL": 54,
    "AVISIT": "End of Study",
    "AVISITN": 99
  },
  {
    "STUDYID": "CDISCPILOT01",
    "USUBJID": "01-701-1363",
    "SITEID": "701",
    "TRT01P": "Placebo",
    "TRT01A": "Placebo",
    "TRT01PN": 0,
    "TRTP": "Placebo",
    "TRTA": "Placebo",
    "TRTSDT": "2013-05-30",
    "TRTEDT": "2013-11-27",
    "SAFFL": "Y",
    "ITTFL": "Y",
    "PARAMCD": "AVGDD",
    "PARAM": "Average Daily Dose (mg)",
    "PARAMN": 1,
    "AVAL": 0,
    "AVISIT": "End of Study",
    "AVISITN": 99
  },
  {
    "STUDYID": "CDISCPILOT01",
    "USUBJID": "01-701-1383",
    "SITEID": "701",
    "TRT01P": "Xanomeline High Dose",
    "TRT01A": "Xanomeline High Dose",
    "TRT01PN": 2,
    "TRTP": "Xanomeline High Dose",
    "TRTA": "Xanomeline High Dose",
    "TRTSDT": "2013-02-04",
    "TRTEDT": "2013-08-06",
    "SAFFL": "Y",
    "ITTFL": "Y",
    "PARAMCD": "AVGDD",
    "PARAM": "Average Daily Dose (mg)",
    "PARAMN": 1,
    "AVAL": 77.6,
    "AVISIT": "End of Study",
    "AVISITN": 99
  },
  {
    "STUDYID": "CDISCPILOT01",
    "USUBJID": "01-701-1387",
    "SITEID": "701",
    "TRT01P": "Placebo",
    "TRT01A": "Placebo",
    "TRT01PN": 0,
    "TRTP": "Placebo",
    "TRTA": "Placebo",
    "TRTSDT": "2014-03-12",
    "TRTEDT": "2014-03-25",
    "SAFFL": "Y",
    "ITTFL": "Y",
    "PARAMCD": "AVGDD",
    "PARAM": "Average Daily Dose (mg)",
    "PARAMN": 1,
    "AVAL": 0,
    "AVISIT": "End of Study",
    "AVISITN": 99
  },
  {
    "STUDYID": "CDISCPILOT01",
    "USUBJID": "01-701-1392",
    "SITEID": "701",
    "TRT01P": "Placebo",
    "TRT01A": "Placebo",
    "TRT01PN": 0,
    "TRTP": "Placebo",
    "TRTA": "Placebo",
    "TRTSDT": "2012-10-28",
    "TRTEDT": "2013-04-28",
    "SAFFL": "Y",
    "ITTFL": "Y",
    "PARAMCD": "AVGDD",
    "PARAM": "Average Daily Dose (mg)",
    "PARAMN": 1,
    "AVAL": 0,
    "AVISIT": "End of Study",
    "AVISITN": 99
  },
  {
    "STUDYID": "CDISCPILOT01",
    "USUBJID": "01-701-1415",
    "SITEID": "701",
    "TRT01P": "Placebo",
    "TRT01A": "Placebo",
    "TRT01PN": 0,
    "TRTP": "Placebo",
    "TRTA": "Placebo",
    "TRTSDT": "2013-09-23",
    "TRTEDT": "2014-03-24",
    "SAFFL": "Y",
    "ITTFL": "Y",
    "PARAMCD": "AVGDD",
    "PARAM": "Average Daily Dose (mg)",
    "PARAMN": 1,
    "AVAL": 0,
    "AVISIT": "End of Study",
    "AVISITN": 99
  },
  {
    "STUDYID": "CDISCPILOT01",
    "USUBJID": "01-701-1429",
    "SITEID": "701",
    "TRT01P": "Xanomeline Low Dose",
    "TRT01A": "Xanomeline Low Dose",
    "TRT01PN": 1,
    "TRTP": "Xanomeline Low Dose",
    "TRTA": "Xanomeline Low Dose",
    "TRTSDT": "2013-03-19",
    "TRTEDT": "2013-04-30",
    "SAFFL": "Y",
    "ITTFL": "Y",
    "PARAMCD": "AVGDD",
    "PARAM": "Average Daily Dose (mg)",
    "PARAMN": 1,
    "AVAL": 54,
    "AVISIT": "End of Study",
    "AVISITN": 99
  },
  {
    "STUDYID": "CDISCPILOT01",
    "USUBJID": "01-701-1440",
    "SITEID": "701",
    "TRT01P": "Placebo",
    "TRT01A": "Placebo",
    "TRT01PN": 0,
    "TRTP": "Placebo",
    "TRTA": "Placebo",
    "TRTSDT": "2013-08-08",
    "TRTEDT": "2014-02-05",
    "SAFFL": "Y",
    "ITTFL": "Y",
    "PARAMCD": "AVGDD",
    "PARAM": "Average Daily Dose (mg)",
    "PARAMN": 1,
    "AVAL": 0,
    "AVISIT": "End of Study",
    "AVISITN": 99
  },
  {
    "STUDYID": "CDISCPILOT01",
    "USUBJID": "01-701-1442",
    "SITEID": "701",
    "TRT01P": "Xanomeline Low Dose",
    "TRT01A": "Xanomeline Low Dose",
    "TRT01PN": 1,
    "TRTP": "Xanomeline Low Dose",
    "TRTA": "Xanomeline Low Dose",
    "TRTSDT": "2013-10-26",
    "TRTEDT": "2014-04-26",
    "SAFFL": "Y",
    "ITTFL": "Y",
    "PARAMCD": "AVGDD",
    "PARAM": "Average Daily Dose (mg)",
    "PARAMN": 1,
    "AVAL": 54,
    "AVISIT": "End of Study",
    "AVISITN": 99
  },
  {
    "STUDYID": "CDISCPILOT01",
    "USUBJID": "01-701-1444",
    "SITEID": "701",
    "TRT01P": "Xanomeline High Dose",
    "TRT01A": "Xanomeline High Dose",
    "TRT01PN": 2,
    "TRTP": "Xanomeline High Dose",
    "TRTA": "Xanomeline High Dose",
    "TRTSDT": "2013-01-05",
    "TRTEDT": "2013-02-12",
    "SAFFL": "Y",
    "ITTFL": "Y",
    "PARAMCD": "AVGDD",
    "PARAM": "Average Daily Dose (mg)",
    "PARAMN": 1,
    "AVAL": 71.3,
    "AVISIT": "End of Study",
    "AVISITN": 99
  },
  {
    "STUDYID": "CDISCPILOT01",
    "USUBJID": "01-702-1082",
    "SITEID": "702",
    "TRT01P": "Xanomeline Low Dose",
    "TRT01A": "Xanomeline Low Dose",
    "TRT01PN": 1,
    "TRTP": "Xanomeline Low Dose",
    "TRTA": "Xanomeline Low Dose",
    "TRTSDT": "2013-07-26",
    "TRTEDT": "2013-10-13",
    "SAFFL": "Y",
    "ITTFL": "Y",
    "PARAMCD": "AVGDD",
    "PARAM": "Average Daily Dose (mg)",
    "PARAMN": 1,
    "AVAL": 54,
    "AVISIT": "End of Study",
    "AVISITN": 99
  },
  {
    "STUDYID": "CDISCPILOT01",
    "USUBJID": "01-703-1042",
    "SITEID": "703",
    "TRT01P": "Placebo",
    "TRT01A": "Placebo",
    "TRT01PN": 0,
    "TRTP": "Placebo",
    "TRTA": "Placebo",
    "TRTSDT": "2013-03-02",
    "TRTEDT": "2013-08-31",
    "SAFFL": "Y",
    "ITTFL": "Y",
    "PARAMCD": "AVGDD",
    "PARAM": "Average Daily Dose (mg)",
    "PARAMN": 1,
    "AVAL": 0,
    "AVISIT": "End of Study",
    "AVISITN": 99
  },
  {
    "STUDYID": "CDISCPILOT01",
    "USUBJID": "01-703-1076",
    "SITEID": "703",
    "TRT01P": "Xanomeline High Dose",
    "TRT01A": "Xanomeline High Dose",
    "TRT01PN": 2,
    "TRTP": "Xanomeline High Dose",
    "TRTA": "Xanomeline High Dose",
    "TRTSDT": "2013-10-25",
    "TRTEDT": "2013-12-24",
    "SAFFL": "Y",
    "ITTFL": "Y",
    "PARAMCD": "AVGDD",
    "PARAM": "Average Daily Dose (mg)",
    "PARAMN": 1,
    "AVAL": 75.2,
    "AVISIT": "End of Study",
    "AVISITN": 99
  },
  {
    "STUDYID": "CDISCPILOT01",
    "USUBJID": "01-703-1086",
    "SITEID": "703",
    "TRT01P": "Xanomeline Low Dose",
    "TRT01A": "Xanomeline Low Dose",
    "TRT01PN": 1,
    "TRTP": "Xanomeline Low Dose",
    "TRTA": "Xanomeline Low Dose",
    "TRTSDT": "2012-09-02",
    "TRTEDT": "2012-12-04",
    "SAFFL": "Y",
    "ITTFL": "Y",
    "PARAMCD": "AVGDD",
    "PARAM": "Average Daily Dose (mg)",
    "PARAMN": 1,
    "AVAL": 54,
    "AVISIT": "End of Study",
    "AVISITN": 99
  },
  {
    "STUDYID": "CDISCPILOT01",
    "USUBJID": "01-703-1096",
    "SITEID": "703",
    "TRT01P": "Placebo",
    "TRT01A": "Placebo",
    "TRT01PN": 0,
    "TRTP": "Placebo",
    "TRTA": "Placebo",
    "TRTSDT": "2013-01-25",
    "TRTEDT": "2013-03-16",
    "SAFFL": "Y",
    "ITTFL": "Y",
    "PARAMCD": "AVGDD",
    "PARAM": "Average Daily Dose (mg)",
    "PARAMN": 1,
    "AVAL": 0,
    "AVISIT": "End of Study",
    "AVISITN": 99
  },
  {
    "STUDYID": "CDISCPILOT01",
    "USUBJID": "01-703-1100",
    "SITEID": "703",
    "TRT01P": "Placebo",
    "TRT01A": "Placebo",
    "TRT01PN": 0,
    "TRTP": "Placebo",
    "TRTA": "Placebo",
    "TRTSDT": "2013-03-13",
    "TRTEDT": "2013-09-14",
    "SAFFL": "Y",
    "ITTFL": "Y",
    "PARAMCD": "AVGDD",
    "PARAM": "Average Daily Dose (mg)",
    "PARAMN": 1,
    "AVAL": 0,
    "AVISIT": "End of Study",
    "AVISITN": 99
  },
  {
    "STUDYID": "CDISCPILOT01",
    "USUBJID": "01-703-1119",
    "SITEID": "703",
    "TRT01P": "Xanomeline Low Dose",
    "TRT01A": "Xanomeline Low Dose",
    "TRT01PN": 1,
    "TRTP": "Xanomeline Low Dose",
    "TRTA": "Xanomeline Low Dose",
    "TRTSDT": "2013-02-20",
    "TRTEDT": "2013-06-13",
    "SAFFL": "Y",
    "ITTFL": "Y",
    "PARAMCD": "AVGDD",
    "PARAM": "Average Daily Dose (mg)",
    "PARAMN": 1,
    "AVAL": 54,
    "AVISIT": "End of Study",
    "AVISITN": 99
  },
  {
    "STUDYID": "CDISCPILOT01",
    "USUBJID": "01-703-1175",
    "SITEID": "703",
    "TRT01P": "Placebo",
    "TRT01A": "Placebo",
    "TRT01PN": 0,
    "TRTP": "Placebo",
    "TRTA": "Placebo",
    "TRTSDT": "2013-12-20",
    "TRTEDT": "2013-12-26",
    "SAFFL": "Y",
    "ITTFL": "Y",
    "PARAMCD": "AVGDD",
    "PARAM": "Average Daily Dose (mg)",
    "PARAMN": 1,
    "AVAL": 0,
    "AVISIT": "End of Study",
    "AVISITN": 99
  },
  {
    "STUDYID": "CDISCPILOT01",
    "USUBJID": "01-703-1182",
    "SITEID": "703",
    "TRT01P": "Xanomeline Low Dose",
    "TRT01A": "Xanomeline Low Dose",
    "TRT01PN": 1,
    "TRTP": "Xanomeline Low Dose",
    "TRTA": "Xanomeline Low Dose",
    "TRTSDT": "2013-10-17",
    "TRTEDT": "2013-12-11",
    "SAFFL": "Y",
    "ITTFL": "Y",
    "PARAMCD": "AVGDD",
    "PARAM": "Average Daily Dose (mg)",
    "PARAMN": 1,
    "AVAL": 54,
    "AVISIT": "End of Study",
    "AVISITN": 99
  },
  {
    "STUDYID": "CDISCPILOT01",
    "USUBJID": "01-703-1197",
    "SITEID": "703",
    "TRT01P": "Xanomeline Low Dose",
    "TRT01A": "Xanomeline Low Dose",
    "TRT01PN": 1,
    "TRTP": "Xanomeline Low Dose",
    "TRTA": "Xanomeline Low Dose",
    "TRTSDT": "2013-06-16",
    "TRTEDT": "2013-06-29",
    "SAFFL": "Y",
    "ITTFL": "Y",
    "PARAMCD": "AVGDD",
    "PARAM": "Average Daily Dose (mg)",
    "PARAMN": 1,
    "AVAL": 54,
    "AVISIT": "End of Study",
    "AVISITN": 99
  },
  {
    "STUDYID": "CDISCPILOT01",
    "USUBJID": "01-703-1210",
    "SITEID": "703",
    "TRT01P": "Placebo",
    "TRT01A": "Placebo",
    "TRT01PN": 0,
    "TRTP": "Placebo",
    "TRTA": "Placebo",
    "TRTSDT": "2013-03-16",
    "TRTEDT": "2013-09-06",
    "SAFFL": "Y",
    "ITTFL": "Y",
    "PARAMCD": "AVGDD",
    "PARAM": "Average Daily Dose (mg)",
    "PARAMN": 1,
    "AVAL": 0,
    "AVISIT": "End of Study",
    "AVISITN": 99
  },
  {
    "STUDYID": "CDISCPILOT01",
    "USUBJID": "01-703-1258",
    "SITEID": "703",
    "TRT01P": "Xanomeline High Dose",
    "TRT01A": "Xanomeline High Dose",
    "TRT01PN": 2,
    "TRTP": "Xanomeline High Dose",
    "TRTA": "Xanomeline High Dose",
    "TRTSDT": "2012-07-20",
    "TRTEDT": "2013-01-11",
    "SAFFL": "Y",
    "ITTFL": "Y",
    "PARAMCD": "AVGDD",
    "PARAM": "Average Daily Dose (mg)",
    "PARAMN": 1,
    "AVAL": 77.3,
    "AVISIT": "End of Study",
    "AVISITN": 99
  },
  {
    "STUDYID": "CDISCPILOT01",
    "USUBJID": "01-703-1279",
    "SITEID": "703",
    "TRT01P": "Xanomeline Low Dose",
    "TRT01A": "Xanomeline Low Dose",
    "TRT01PN": 1,
    "TRTP": "Xanomeline Low Dose",
    "TRTA": "Xanomeline Low Dose",
    "TRTSDT": "2013-05-13",
    "TRTEDT": "2013-06-03",
    "SAFFL": "Y",
    "ITTFL": "Y",
    "PARAMCD": "AVGDD",
    "PARAM": "Average Daily Dose (mg)",
    "PARAMN": 1,
    "AVAL": 54,
    "AVISIT": "End of Study",
    "AVISITN": 99
  },
  {
    "STUDYID": "CDISCPILOT01",
    "USUBJID": "01-703-1295",
    "SITEID": "703",
    "TRT01P": "Xanomeline High Dose",
    "TRT01A": "Xanomeline High Dose",
    "TRT01PN": 2,
    "TRTP": "Xanomeline High Dose",
    "TRTA": "Xanomeline High Dose",
    "TRTSDT": "2013-11-21",
    "TRTEDT": "2014-04-19",
    "SAFFL": "Y",
    "ITTFL": "Y",
    "PARAMCD": "AVGDD",
    "PARAM": "Average Daily Dose (mg)",
    "PARAMN": 1,
    "AVAL": 78.3,
    "AVISIT": "End of Study",
    "AVISITN": 99
  },
  {
    "STUDYID": "CDISCPILOT01",
    "USUBJID": "01-703-1299",
    "SITEID": "703",
    "TRT01P": "Placebo",
    "TRT01A": "Placebo",
    "TRT01PN": 0,
    "TRTP": "Placebo",
    "TRTA": "Placebo",
    "TRTSDT": "2012-09-12",
    "TRTEDT": "2013-03-13",
    "SAFFL": "Y",
    "ITTFL": "Y",
    "PARAMCD": "AVGDD",
    "PARAM": "Average Daily Dose (mg)",
    "PARAMN": 1,
    "AVAL": 0,
    "AVISIT": "End of Study",
    "AVISITN": 99
  },
  {
    "STUDYID": "CDISCPILOT01",
    "USUBJID": "01-703-1335",
    "SITEID": "703",
    "TRT01P": "Xanomeline High Dose",
    "TRT01A": "Xanomeline High Dose",
    "TRT01PN": 2,
    "TRTP": "Xanomeline High Dose",
    "TRTA": "Xanomeline High Dose",
    "TRTSDT": "2014-03-17",
    "TRTEDT": "2014-05-07",
    "SAFFL": "Y",
    "ITTFL": "Y",
    "PARAMCD": "AVGDD",
    "PARAM": "Average Daily Dose (mg)",
    "PARAMN": 1,
    "AVAL": 73.2,
    "AVISIT": "End of Study",
    "AVISITN": 99
  },
  {
    "STUDYID": "CDISCPILOT01",
    "USUBJID": "01-703-1379",
    "SITEID": "703",
    "TRT01P": "Xanomeline Low Dose",
    "TRT01A": "Xanomeline Low Dose",
    "TRT01PN": 1,
    "TRTP": "Xanomeline Low Dose",
    "TRTA": "Xanomeline Low Dose",
    "TRTSDT": "2013-09-22",
    "TRTEDT": "2014-03-21",
    "SAFFL": "Y",
    "ITTFL": "Y",
    "PARAMCD": "AVGDD",
    "PARAM": "Average Daily Dose (mg)",
    "PARAMN": 1,
    "AVAL": 54,
    "AVISIT": "End of Study",
    "AVISITN": 99
  },
  {
    "STUDYID": "CDISCPILOT01",
    "USUBJID": "01-703-1403",
    "SITEID": "703",
    "TRT01P": "Xanomeline High Dose",
    "TRT01A": "Xanomeline Low Dose",
    "TRT01PN": 2,
    "TRTP": "Xanomeline High Dose",
    "TRTA": "Xanomeline Low Dose",
    "TRTSDT": "2012-12-12",
    "TRTEDT": "2012-12-13",
    "SAFFL": "Y",
    "ITTFL": "Y",
    "PARAMCD": "AVGDD",
    "PARAM": "Average Daily Dose (mg)",
    "PARAMN": 1,
    "AVAL": 54,
    "AVISIT": "End of Study",
    "AVISITN": 99
  },
  {
    "STUDYID": "CDISCPILOT01",
    "USUBJID": "01-703-1439",
    "SITEID": "703",
    "TRT01P": "Xanomeline High Dose",
    "TRT01A": "Xanomeline High Dose",
    "TRT01PN": 2,
    "TRTP": "Xanomeline High Dose",
    "TRTA": "Xanomeline High Dose",
    "TRTSDT": "2014-03-12",
    "TRTEDT": "2014-09-11",
    "SAFFL": "Y",
    "ITTFL": "Y",
    "PARAMCD": "AVGDD",
    "PARAM": "Average Daily Dose (mg)",
    "PARAMN": 1,
    "AVAL": 76.7,
    "AVISIT": "End of Study",
    "AVISITN": 99
  },
  {
    "STUDYID": "CDISCPILOT01",
    "USUBJID": "01-704-1008",
    "SITEID": "704",
    "TRT01P": "Xanomeline High Dose",
    "TRT01A": "Xanomeline High Dose",
    "TRT01PN": 2,
    "TRTP": "Xanomeline High Dose",
    "TRTA": "Xanomeline High Dose",
    "TRTSDT": "2013-01-13",
    "TRTEDT": "2013-02-21",
    "SAFFL": "Y",
    "ITTFL": "Y",
    "PARAMCD": "AVGDD",
    "PARAM": "Average Daily Dose (mg)",
    "PARAMN": 1,
    "AVAL": 70.2,
    "AVISIT": "End of Study",
    "AVISITN": 99
  },
  {
    "STUDYID": "CDISCPILOT01",
    "USUBJID": "01-704-1009",
    "SITEID": "704",
    "TRT01P": "Xanomeline Low Dose",
    "TRT01A": "Xanomeline Low Dose",
    "TRT01PN": 1,
    "TRTP": "Xanomeline Low Dose",
    "TRTA": "Xanomeline Low Dose",
    "TRTSDT": "2013-08-27",
    "TRTEDT": "2013-09-25",
    "SAFFL": "Y",
    "ITTFL": "Y",
    "PARAMCD": "AVGDD",
    "PARAM": "Average Daily Dose (mg)",
    "PARAMN": 1,
    "AVAL": 54,
    "AVISIT": "End of Study",
    "AVISITN": 99
  },
  {
    "STUDYID": "CDISCPILOT01",
    "USUBJID": "01-704-1010",
    "SITEID": "704",
    "TRT01P": "Placebo",
    "TRT01A": "Placebo",
    "TRT01PN": 0,
    "TRTP": "Placebo",
    "TRTA": "Placebo",
    "TRTSDT": "2014-02-21",
    "TRTEDT": "2014-07-08",
    "SAFFL": "Y",
    "ITTFL": "Y",
    "PARAMCD": "AVGDD",
    "PARAM": "Average Daily Dose (mg)",
    "PARAMN": 1,
    "AVAL": 0,
    "AVISIT": "End of Study",
    "AVISITN": 99
  },
  {
    "STUDYID": "CDISCPILOT01",
    "USUBJID": "01-704-1017",
    "SITEID": "704",
    "TRT01P": "Xanomeline High Dose",
    "TRT01A": "Xanomeline High Dose",
    "TRT01PN": 2,
    "TRTP": "Xanomeline High Dose",
    "TRTA": "Xanomeline High Dose",
    "TRTSDT": "2013-10-06",
    "TRTEDT": "2013-11-18",
    "SAFFL": "Y",
    "ITTFL": "Y",
    "PARAMCD": "AVGDD",
    "PARAM": "Average Daily Dose (mg)",
    "PARAMN": 1,
    "AVAL": 72.4,
    "AVISIT": "End of Study",
    "AVISITN": 99
  },
  {
    "STUDYID": "CDISCPILOT01",
    "USUBJID": "01-704-1025",
    "SITEID": "704",
    "TRT01P": "Xanomeline Low Dose",
    "TRT01A": "Xanomeline Low Dose",
    "TRT01PN": 1,
    "TRTP": "Xanomeline Low Dose",
    "TRTA": "Xanomeline Low Dose",
    "TRTSDT": "2013-09-27",
    "TRTEDT": "2013-10-24",
    "SAFFL": "Y",
    "ITTFL": "Y",
    "PARAMCD": "AVGDD",
    "PARAM": "Average Daily Dose (mg)",
    "PARAMN": 1,
    "AVAL": 54,
    "AVISIT": "End of Study",
    "AVISITN": 99
  },
  {
    "STUDYID": "CDISCPILOT01",
    "USUBJID": "01-704-1065",
    "SITEID": "704",
    "TRT01P": "Xanomeline High Dose",
    "TRT01A": "Xanomeline High Dose",
    "TRT01PN": 2,
    "TRTP": "Xanomeline High Dose",
    "TRTA": "Xanomeline High Dose",
    "TRTSDT": "2013-10-24",
    "TRTEDT": "2013-12-22",
    "SAFFL": "Y",
    "ITTFL": "Y",
    "PARAMCD": "AVGDD",
    "PARAM": "Average Daily Dose (mg)",
    "PARAMN": 1,
    "AVAL": 74.2,
    "AVISIT": "End of Study",
    "AVISITN": 99
  },
  {
    "STUDYID": "CDISCPILOT01",
    "USUBJID": "01-704-1074",
    "SITEID": "704",
    "TRT01P": "Xanomeline High Dose",
    "TRT01A": "Xanomeline High Dose",
    "TRT01PN": 2,
    "TRTP": "Xanomeline High Dose",
    "TRTA": "Xanomeline High Dose",
    "TRTSDT": "2014-01-22",
    "TRTEDT": "2014-03-20",
    "SAFFL": "Y",
    "ITTFL": "Y",
    "PARAMCD": "AVGDD",
    "PARAM": "Average Daily Dose (mg)",
    "PARAMN": 1,
    "AVAL": 72.2,
    "AVISIT": "End of Study",
    "AVISITN": 99
  },
  {
    "STUDYID": "CDISCPILOT01",
    "USUBJID": "01-704-1093",
    "SITEID": "704",
    "TRT01P": "Xanomeline High Dose",
    "TRT01A": "Xanomeline High Dose",
    "TRT01PN": 2,
    "TRTP": "Xanomeline High Dose",
    "TRTA": "Xanomeline High Dose",
    "TRTSDT": "2013-03-15",
    "TRTEDT": "2013-06-17",
    "SAFFL": "Y",
    "ITTFL": "Y",
    "PARAMCD": "AVGDD",
    "PARAM": "Average Daily Dose (mg)",
    "PARAMN": 1,
    "AVAL": 76.5,
    "AVISIT": "End of Study",
    "AVISITN": 99
  },
  {
    "STUDYID": "CDISCPILOT01",
    "USUBJID": "01-704-1114",
    "SITEID": "704",
    "TRT01P": "Xanomeline Low Dose",
    "TRT01A": "Xanomeline Low Dose",
    "TRT01PN": 1,
    "TRTP": "Xanomeline Low Dose",
    "TRTA": "Xanomeline Low Dose",
    "TRTSDT": "2013-01-23",
    "TRTEDT": "2013-07-07",
    "SAFFL": "Y",
    "ITTFL": "Y",
    "PARAMCD": "AVGDD",
    "PARAM": "Average Daily Dose (mg)",
    "PARAMN": 1,
    "AVAL": 54,
    "AVISIT": "End of Study",
    "AVISITN": 99
  },
  {
    "STUDYID": "CDISCPILOT01",
    "USUBJID": "01-704-1120",
    "SITEID": "704",
    "TRT01P": "Xanomeline Low Dose",
    "TRT01A": "Xanomeline Low Dose",
    "TRT01PN": 1,
    "TRTP": "Xanomeline Low Dose",
    "TRTA": "Xanomeline Low Dose",
    "TRTSDT": "2013-12-02",
    "TRTEDT": "2014-02-01",
    "SAFFL": "Y",
    "ITTFL": "Y",
    "PARAMCD": "AVGDD",
    "PARAM": "Average Daily Dose (mg)",
    "PARAMN": 1,
    "AVAL": 54,
    "AVISIT": "End of Study",
    "AVISITN": 99
  },
  {
    "STUDYID": "CDISCPILOT01",
    "USUBJID": "01-704-1127",
    "SITEID": "704",
    "TRT01P": "Placebo",
    "TRT01A": "Placebo",
    "TRT01PN": 0,
    "TRTP": "Placebo",
    "TRTA": "Placebo",
    "TRTSDT": "2013-10-02",
    "TRTEDT": "2014-03-31",
    "SAFFL": "Y",
    "ITTFL": "Y",
    "PARAMCD": "AVGDD",
    "PARAM": "Average Daily Dose (mg)",
    "PARAMN": 1,
    "AVAL": 0,
    "AVISIT": "End of Study",
    "AVISITN": 99
  },
  {
    "STUDYID": "CDISCPILOT01",
    "USUBJID": "01-704-1135",
    "SITEID": "704",
    "TRT01P": "Xanomeline Low Dose",
    "TRT01A": "Xanomeline Low Dose",
    "TRT01PN": 1,
    "TRTP": "Xanomeline Low Dose",
    "TRTA": "Xanomeline Low Dose",
    "TRTSDT": "2013-10-31",
    "TRTEDT": "2014-05-16",
    "SAFFL": "Y",
    "ITTFL": "Y",
    "PARAMCD": "AVGDD",
    "PARAM": "Average Daily Dose (mg)",
    "PARAMN": 1,
    "AVAL": 54,
    "AVISIT": "End of Study",
    "AVISITN": 99
  },
  {
    "STUDYID": "CDISCPILOT01",
    "USUBJID": "01-704-1164",
    "SITEID": "704",
    "TRT01P": "Placebo",
    "TRT01A": "Placebo",
    "TRT01PN": 0,
    "TRTP": "Placebo",
    "TRTA": "Placebo",
    "TRTSDT": "2012-09-19",
    "TRTEDT": "2013-04-04",
    "SAFFL": "Y",
    "ITTFL": "Y",
    "PARAMCD": "AVGDD",
    "PARAM": "Average Daily Dose (mg)",
    "PARAMN": 1,
    "AVAL": 0,
    "AVISIT": "End of Study",
    "AVISITN": 99
  },
  {
    "STUDYID": "CDISCPILOT01",
    "USUBJID": "01-704-1218",
    "SITEID": "704",
    "TRT01P": "Xanomeline Low Dose",
    "TRT01A": "Xanomeline Low Dose",
    "TRT01PN": 1,
    "TRTP": "Xanomeline Low Dose",
    "TRTA": "Xanomeline Low Dose",
    "TRTSDT": "2012-11-19",
    "TRTEDT": "2013-05-27",
    "SAFFL": "Y",
    "ITTFL": "Y",
    "PARAMCD": "AVGDD",
    "PARAM": "Average Daily Dose (mg)",
    "PARAMN": 1,
    "AVAL": 54,
    "AVISIT": "End of Study",
    "AVISITN": 99
  },
  {
    "STUDYID": "CDISCPILOT01",
    "USUBJID": "01-704-1233",
    "SITEID": "704",
    "TRT01P": "Placebo",
    "TRT01A": "Placebo",
    "TRT01PN": 0,
    "TRTP": "Placebo",
    "TRTA": "Placebo",
    "TRTSDT": "2013-03-21",
    "TRTEDT": "2013-04-04",
    "SAFFL": "Y",
    "ITTFL": "Y",
    "PARAMCD": "AVGDD",
    "PARAM": "Average Daily Dose (mg)",
    "PARAMN": 1,
    "AVAL": 0,
    "AVISIT": "End of Study",
    "AVISITN": 99
  },
  {
    "STUDYID": "CDISCPILOT01",
    "USUBJID": "01-704-1241",
    "SITEID": "704",
    "TRT01P": "Xanomeline High Dose",
    "TRT01A": "Xanomeline High Dose",
    "TRT01PN": 2,
    "TRTP": "Xanomeline High Dose",
    "TRTA": "Xanomeline High Dose",
    "TRTSDT": "2013-08-25",
    "TRTEDT": "2013-10-09",
    "SAFFL": "Y",
    "ITTFL": "Y",
    "PARAMCD": "AVGDD",
    "PARAM": "Average Daily Dose (mg)",
    "PARAMN": 1,
    "AVAL": 74,
    "AVISIT": "End of Study",
    "AVISITN": 99
  },
  {
    "STUDYID": "CDISCPILOT01",
    "USUBJID": "01-704-1260",
    "SITEID": "704",
    "TRT01P": "Placebo",
    "TRT01A": "Placebo",
    "TRT01PN": 0,
    "TRTP": "Placebo",
    "TRTA": "Placebo",
    "TRTSDT": "2012-08-30",
    "TRTEDT": "2012-11-04",
    "SAFFL": "Y",
    "ITTFL": "Y",
    "PARAMCD": "AVGDD",
    "PARAM": "Average Daily Dose (mg)",
    "PARAMN": 1,
    "AVAL": 0,
    "AVISIT": "End of Study",
    "AVISITN": 99
  },
  {
    "STUDYID": "CDISCPILOT01",
    "USUBJID": "01-704-1266",
    "SITEID": "704",
    "TRT01P": "Xanomeline High Dose",
    "TRT01A": "Xanomeline High Dose",
    "TRT01PN": 2,
    "TRTP": "Xanomeline High Dose",
    "TRTA": "Xanomeline High Dose",
    "TRTSDT": "2013-10-13",
    "TRTEDT": "2013-12-06",
    "SAFFL": "Y",
    "ITTFL": "Y",
    "PARAMCD": "AVGDD",
    "PARAM": "Average Daily Dose (mg)",
    "PARAMN": 1,
    "AVAL": 73.6,
    "AVISIT": "End of Study",
    "AVISITN": 99
  },
  {
    "STUDYID": "CDISCPILOT01",
    "USUBJID": "01-704-1323",
    "SITEID": "704",
    "TRT01P": "Xanomeline Low Dose",
    "TRT01A": "Xanomeline Low Dose",
    "TRT01PN": 1,
    "TRTP": "Xanomeline Low Dose",
    "TRTA": "Xanomeline Low Dose",
    "TRTSDT": "2013-07-08",
    "TRTEDT": "2013-08-05",
    "SAFFL": "Y",
    "ITTFL": "Y",
    "PARAMCD": "AVGDD",
    "PARAM": "Average Daily Dose (mg)",
    "PARAMN": 1,
    "AVAL": 54,
    "AVISIT": "End of Study",
    "AVISITN": 99
  },
  {
    "STUDYID": "CDISCPILOT01",
    "USUBJID": "01-704-1325",
    "SITEID": "704",
    "TRT01P": "Xanomeline Low Dose",
    "TRT01A": "Xanomeline Low Dose",
    "TRT01PN": 1,
    "TRTP": "Xanomeline Low Dose",
    "TRTA": "Xanomeline Low Dose",
    "TRTSDT": "2014-04-23",
    "TRTEDT": "2014-07-04",
    "SAFFL": "Y",
    "ITTFL": "Y",
    "PARAMCD": "AVGDD",
    "PARAM": "Average Daily Dose (mg)",
    "PARAMN": 1,
    "AVAL": 54,
    "AVISIT": "End of Study",
    "AVISITN": 99
  },
  {
    "STUDYID": "CDISCPILOT01",
    "USUBJID": "01-704-1332",
    "SITEID": "704",
    "TRT01P": "Xanomeline High Dose",
    "TRT01A": "Xanomeline High Dose",
    "TRT01PN": 2,
    "TRTP": "Xanomeline High Dose",
    "TRTA": "Xanomeline High Dose",
    "TRTSDT": "2013-12-09",
    "TRTEDT": "2014-02-14",
    "SAFFL": "Y",
    "ITTFL": "Y",
    "PARAMCD": "AVGDD",
    "PARAM": "Average Daily Dose (mg)",
    "PARAMN": 1,
    "AVAL": 75,
    "AVISIT": "End of Study",
    "AVISITN": 99
  },
  {
    "STUDYID": "CDISCPILOT01",
    "USUBJID": "01-704-1351",
    "SITEID": "704",
    "TRT01P": "Placebo",
    "TRT01A": "Placebo",
    "TRT01PN": 0,
    "TRTP": "Placebo",
    "TRTA": "Placebo",
    "TRTSDT": "2013-10-12",
    "TRTEDT": "2014-04-18",
    "SAFFL": "Y",
    "ITTFL": "Y",
    "PARAMCD": "AVGDD",
    "PARAM": "Average Daily Dose (mg)",
    "PARAMN": 1,
    "AVAL": 0,
    "AVISIT": "End of Study",
    "AVISITN": 99
  },
  {
    "STUDYID": "CDISCPILOT01",
    "USUBJID": "01-704-1388",
    "SITEID": "704",
    "TRT01P": "Placebo",
    "TRT01A": "Placebo",
    "TRT01PN": 0,
    "TRTP": "Placebo",
    "TRTA": "Placebo",
    "TRTSDT": "2012-12-07",
    "TRTEDT": "2013-06-11",
    "SAFFL": "Y",
    "ITTFL": "Y",
    "PARAMCD": "AVGDD",
    "PARAM": "Average Daily Dose (mg)",
    "PARAMN": 1,
    "AVAL": 0,
    "AVISIT": "End of Study",
    "AVISITN": 99
  },
  {
    "STUDYID": "CDISCPILOT01",
    "USUBJID": "01-704-1435",
    "SITEID": "704",
    "TRT01P": "Placebo",
    "TRT01A": "Placebo",
    "TRT01PN": 0,
    "TRTP": "Placebo",
    "TRTA": "Placebo",
    "TRTSDT": "2012-11-17",
    "TRTEDT": "2013-01-09",
    "SAFFL": "Y",
    "ITTFL": "Y",
    "PARAMCD": "AVGDD",
    "PARAM": "Average Daily Dose (mg)",
    "PARAMN": 1,
    "AVAL": 0,
    "AVISIT": "End of Study",
    "AVISITN": 99
  },
  {
    "STUDYID": "CDISCPILOT01",
    "USUBJID": "01-704-1445",
    "SITEID": "704",
    "TRT01P": "Placebo",
    "TRT01A": "Placebo",
    "TRT01PN": 0,
    "TRTP": "Placebo",
    "TRTA": "Placebo",
    "TRTSDT": "2014-05-11",
    "TRTEDT": "2014-11-01",
    "SAFFL": "Y",
    "ITTFL": "Y",
    "PARAMCD": "AVGDD",
    "PARAM": "Average Daily Dose (mg)",
    "PARAMN": 1,
    "AVAL": 0,
    "AVISIT": "End of Study",
    "AVISITN": 99
  },
  {
    "STUDYID": "CDISCPILOT01",
    "USUBJID": "01-705-1031",
    "SITEID": "705",
    "TRT01P": "Xanomeline Low Dose",
    "TRT01A": "Xanomeline Low Dose",
    "TRT01PN": 1,
    "TRTP": "Xanomeline Low Dose",
    "TRTA": "Xanomeline Low Dose",
    "TRTSDT": "2013-11-27",
    "TRTEDT": "2013-12-18",
    "SAFFL": "Y",
    "ITTFL": "Y",
    "PARAMCD": "AVGDD",
    "PARAM": "Average Daily Dose (mg)",
    "PARAMN": 1,
    "AVAL": 54,
    "AVISIT": "End of Study",
    "AVISITN": 99
  },
  {
    "STUDYID": "CDISCPILOT01",
    "USUBJID": "01-705-1059",
    "SITEID": "705",
    "TRT01P": "Placebo",
    "TRT01A": "Placebo",
    "TRT01PN": 0,
    "TRTP": "Placebo",
    "TRTA": "Placebo",
    "TRTSDT": "2013-08-05",
    "TRTEDT": "2013-12-05",
    "SAFFL": "Y",
    "ITTFL": "Y",
    "PARAMCD": "AVGDD",
    "PARAM": "Average Daily Dose (mg)",
    "PARAMN": 1,
    "AVAL": 0,
    "AVISIT": "End of Study",
    "AVISITN": 99
  },
  {
    "STUDYID": "CDISCPILOT01",
    "USUBJID": "01-705-1186",
    "SITEID": "705",
    "TRT01P": "Placebo",
    "TRT01A": "Placebo",
    "TRT01PN": 0,
    "TRTP": "Placebo",
    "TRTA": "Placebo",
    "TRTSDT": "2014-01-08",
    "TRTEDT": "2014-01-26",
    "SAFFL": "Y",
    "ITTFL": "Y",
    "PARAMCD": "AVGDD",
    "PARAM": "Average Daily Dose (mg)",
    "PARAMN": 1,
    "AVAL": 0,
    "AVISIT": "End of Study",
    "AVISITN": 99
  },
  {
    "STUDYID": "CDISCPILOT01",
    "USUBJID": "01-705-1199",
    "SITEID": "705",
    "TRT01P": "Xanomeline Low Dose",
    "TRT01A": "Xanomeline Low Dose",
    "TRT01PN": 1,
    "TRTP": "Xanomeline Low Dose",
    "TRTA": "Xanomeline Low Dose",
    "TRTSDT": "2013-09-16",
    "TRTEDT": "2013-09-28",
    "SAFFL": "Y",
    "ITTFL": "Y",
    "PARAMCD": "AVGDD",
    "PARAM": "Average Daily Dose (mg)",
    "PARAMN": 1,
    "AVAL": 54,
    "AVISIT": "End of Study",
    "AVISITN": 99
  },
  {
    "STUDYID": "CDISCPILOT01",
    "USUBJID": "01-705-1280",
    "SITEID": "705",
    "TRT01P": "Xanomeline High Dose",
    "TRT01A": "Xanomeline High Dose",
    "TRT01PN": 2,
    "TRTP": "Xanomeline High Dose",
    "TRTA": "Xanomeline High Dose",
    "TRTSDT": "2014-01-17",
    "TRTEDT": "2014-07-25",
    "SAFFL": "Y",
    "ITTFL": "Y",
    "PARAMCD": "AVGDD",
    "PARAM": "Average Daily Dose (mg)",
    "PARAMN": 1,
    "AVAL": 76.9,
    "AVISIT": "End of Study",
    "AVISITN": 99
  },
  {
    "STUDYID": "CDISCPILOT01",
    "USUBJID": "01-705-1281",
    "SITEID": "705",
    "TRT01P": "Xanomeline High Dose",
    "TRT01A": "Xanomeline High Dose",
    "TRT01PN": 2,
    "TRTP": "Xanomeline High Dose",
    "TRTA": "Xanomeline High Dose",
    "TRTSDT": "2013-11-28",
    "TRTEDT": "2014-02-27",
    "SAFFL": "Y",
    "ITTFL": "Y",
    "PARAMCD": "AVGDD",
    "PARAM": "Average Daily Dose (mg)",
    "PARAMN": 1,
    "AVAL": 75.7,
    "AVISIT": "End of Study",
    "AVISITN": 99
  },
  {
    "STUDYID": "CDISCPILOT01",
    "USUBJID": "01-705-1282",
    "SITEID": "705",
    "TRT01P": "Placebo",
    "TRT01A": "Placebo",
    "TRT01PN": 0,
    "TRTP": "Placebo",
    "TRTA": "Placebo",
    "TRTSDT": "2012-12-26",
    "TRTEDT": "2013-06-24",
    "SAFFL": "Y",
    "ITTFL": "Y",
    "PARAMCD": "AVGDD",
    "PARAM": "Average Daily Dose (mg)",
    "PARAMN": 1,
    "AVAL": 0,
    "AVISIT": "End of Study",
    "AVISITN": 99
  },
  {
    "STUDYID": "CDISCPILOT01",
    "USUBJID": "01-705-1292",
    "SITEID": "705",
    "TRT01P": "Xanomeline Low Dose",
    "TRT01A": "Xanomeline Low Dose",
    "TRT01PN": 1,
    "TRTP": "Xanomeline Low Dose",
    "TRTA": "Xanomeline Low Dose",
    "TRTSDT": "2013-10-14",
    "TRTEDT": "2014-05-13",
    "SAFFL": "Y",
    "ITTFL": "Y",
    "PARAMCD": "AVGDD",
    "PARAM": "Average Daily Dose (mg)",
    "PARAMN": 1,
    "AVAL": 54,
    "AVISIT": "End of Study",
    "AVISITN": 99
  },
  {
    "STUDYID": "CDISCPILOT01",
    "USUBJID": "01-705-1303",
    "SITEID": "705",
    "TRT01P": "Xanomeline High Dose",
    "TRT01A": "Xanomeline High Dose",
    "TRT01PN": 2,
    "TRTP": "Xanomeline High Dose",
    "TRTA": "Xanomeline High Dose",
    "TRTSDT": "2013-12-16",
    "TRTEDT": "2013-12-30",
    "SAFFL": "Y",
    "ITTFL": "Y",
    "PARAMCD": "AVGDD",
    "PARAM": "Average Daily Dose (mg)",
    "PARAMN": 1,
    "AVAL": 54,
    "AVISIT": "End of Study",
    "AVISITN": 99
  },
  {
    "STUDYID": "CDISCPILOT01",
    "USUBJID": "01-705-1310",
    "SITEID": "705",
    "TRT01P": "Xanomeline High Dose",
    "TRT01A": "Xanomeline High Dose",
    "TRT01PN": 2,
    "TRTP": "Xanomeline High Dose",
    "TRTA": "Xanomeline High Dose",
    "TRTSDT": "2013-11-02",
    "TRTEDT": "2014-01-23",
    "SAFFL": "Y",
    "ITTFL": "Y",
    "PARAMCD": "AVGDD",
    "PARAM": "Average Daily Dose (mg)",
    "PARAMN": 1,
    "AVAL": 74.2,
    "AVISIT": "End of Study",
    "AVISITN": 99
  },
  {
    "STUDYID": "CDISCPILOT01",
    "USUBJID": "01-705-1349",
    "SITEID": "705",
    "TRT01P": "Placebo",
    "TRT01A": "Placebo",
    "TRT01PN": 0,
    "TRTP": "Placebo",
    "TRTA": "Placebo",
    "TRTSDT": "2013-03-10",
    "TRTEDT": "2013-09-08",
    "SAFFL": "Y",
    "ITTFL": "Y",
    "PARAMCD": "AVGDD",
    "PARAM": "Average Daily Dose (mg)",
    "PARAMN": 1,
    "AVAL": 0,
    "AVISIT": "End of Study",
    "AVISITN": 99
  },
  {
    "STUDYID": "CDISCPILOT01",
    "USUBJID": "01-705-1377",
    "SITEID": "705",
    "TRT01P": "Xanomeline High Dose",
    "TRT01A": "Xanomeline High Dose",
    "TRT01PN": 2,
    "TRTP": "Xanomeline High Dose",
    "TRTA": "Xanomeline High Dose",
    "TRTSDT": "2014-01-04",
    "TRTEDT": "2014-01-25",
    "SAFFL": "Y",
    "ITTFL": "Y",
    "PARAMCD": "AVGDD",
    "PARAM": "Average Daily Dose (mg)",
    "PARAMN": 1,
    "AVAL": 54,
    "AVISIT": "End of Study",
    "AVISITN": 99
  },
  {
    "STUDYID": "CDISCPILOT01",
    "USUBJID": "01-705-1393",
    "SITEID": "705",
    "TRT01P": "Xanomeline Low Dose",
    "TRT01A": "Xanomeline Low Dose",
    "TRT01PN": 1,
    "TRTP": "Xanomeline Low Dose",
    "TRTA": "Xanomeline Low Dose",
    "TRTSDT": "2012-09-07",
    "TRTEDT": "2013-02-01",
    "SAFFL": "Y",
    "ITTFL": "Y",
    "PARAMCD": "AVGDD",
    "PARAM": "Average Daily Dose (mg)",
    "PARAMN": 1,
    "AVAL": 54,
    "AVISIT": "End of Study",
    "AVISITN": 99
  },
  {
    "STUDYID": "CDISCPILOT01",
    "USUBJID": "01-705-1431",
    "SITEID": "705",
    "TRT01P": "Xanomeline Low Dose",
    "TRT01A": "Xanomeline Low Dose",
    "TRT01PN": 1,
    "TRTP": "Xanomeline Low Dose",
    "TRTA": "Xanomeline Low Dose",
    "TRTSDT": "2013-06-23",
    "TRTEDT": "2013-12-19",
    "SAFFL": "Y",
    "ITTFL": "Y",
    "PARAMCD": "AVGDD",
    "PARAM": "Average Daily Dose (mg)",
    "PARAMN": 1,
    "AVAL": 54,
    "AVISIT": "End of Study",
    "AVISITN": 99
  },
  {
    "STUDYID": "CDISCPILOT01",
    "USUBJID": "01-706-1041",
    "SITEID": "706",
    "TRT01P": "Placebo",
    "TRT01A": "Placebo",
    "TRT01PN": 0,
    "TRTP": "Placebo",
    "TRTA": "Placebo",
    "TRTSDT": "2013-12-31",
    "TRTEDT": "2014-07-28",
    "SAFFL": "Y",
    "ITTFL": "Y",
    "PARAMCD": "AVGDD",
    "PARAM": "Average Daily Dose (mg)",
    "PARAMN": 1,
    "AVAL": 0,
    "AVISIT": "End of Study",
    "AVISITN": 99
  },
  {
    "STUDYID": "CDISCPILOT01",
    "USUBJID": "01-706-1049",
    "SITEID": "706",
    "TRT01P": "Xanomeline High Dose",
    "TRT01A": "Xanomeline High Dose",
    "TRT01PN": 2,
    "TRTP": "Xanomeline High Dose",
    "TRTA": "Xanomeline High Dose",
    "TRTSDT": "2013-05-14",
    "TRTEDT": "2013-06-18",
    "SAFFL": "Y",
    "ITTFL": "Y",
    "PARAMCD": "AVGDD",
    "PARAM": "Average Daily Dose (mg)",
    "PARAMN": 1,
    "AVAL": 69.8,
    "AVISIT": "End of Study",
    "AVISITN": 99
  },
  {
    "STUDYID": "CDISCPILOT01",
    "USUBJID": "01-706-1384",
    "SITEID": "706",
    "TRT01P": "Xanomeline Low Dose",
    "TRT01A": "Xanomeline Low Dose",
    "TRT01PN": 1,
    "TRTP": "Xanomeline Low Dose",
    "TRTA": "Xanomeline Low Dose",
    "TRTSDT": "2012-09-15",
    "TRTEDT": "2012-09-24",
    "SAFFL": "Y",
    "ITTFL": "Y",
    "PARAMCD": "AVGDD",
    "PARAM": "Average Daily Dose (mg)",
    "PARAMN": 1,
    "AVAL": 54,
    "AVISIT": "End of Study",
    "AVISITN": 99
  },
  {
    "STUDYID": "CDISCPILOT01",
    "USUBJID": "01-707-1037",
    "SITEID": "707",
    "TRT01P": "Xanomeline Low Dose",
    "TRT01A": "Xanomeline Low Dose",
    "TRT01PN": 1,
    "TRTP": "Xanomeline Low Dose",
    "TRTA": "Xanomeline Low Dose",
    "TRTSDT": "2013-12-20",
    "TRTEDT": "2013-12-24",
    "SAFFL": "Y",
    "ITTFL": "Y",
    "PARAMCD": "AVGDD",
    "PARAM": "Average Daily Dose (mg)",
    "PARAMN": 1,
    "AVAL": 54,
    "AVISIT": "End of Study",
    "AVISITN": 99
  },
  {
    "STUDYID": "CDISCPILOT01",
    "USUBJID": "01-707-1206",
    "SITEID": "707",
    "TRT01P": "Placebo",
    "TRT01A": "Placebo",
    "TRT01PN": 0,
    "TRTP": "Placebo",
    "TRTA": "Placebo",
    "TRTSDT": "2013-10-28",
    "TRTEDT": "2014-04-26",
    "SAFFL": "Y",
    "ITTFL": "Y",
    "PARAMCD": "AVGDD",
    "PARAM": "Average Daily Dose (mg)",
    "PARAMN": 1,
    "AVAL": 0,
    "AVISIT": "End of Study",
    "AVISITN": 99
  },
  {
    "STUDYID": "CDISCPILOT01",
    "USUBJID": "01-708-1019",
    "SITEID": "708",
    "TRT01P": "Xanomeline Low Dose",
    "TRT01A": "Xanomeline Low Dose",
    "TRT01PN": 1,
    "TRTP": "Xanomeline Low Dose",
    "TRTA": "Xanomeline Low Dose",
    "TRTSDT": "2013-12-20",
    "TRTEDT": "2014-01-01",
    "SAFFL": "Y",
    "ITTFL": "Y",
    "PARAMCD": "AVGDD",
    "PARAM": "Average Daily Dose (mg)",
    "PARAMN": 1,
    "AVAL": 54,
    "AVISIT": "End of Study",
    "AVISITN": 99
  },
  {
    "STUDYID": "CDISCPILOT01",
    "USUBJID": "01-708-1032",
    "SITEID": "708",
    "TRT01P": "Xanomeline Low Dose",
    "TRT01A": "Xanomeline Low Dose",
    "TRT01PN": 1,
    "TRTP": "Xanomeline Low Dose",
    "TRTA": "Xanomeline Low Dose",
    "TRTSDT": "2013-02-09",
    "TRTEDT": "2013-03-01",
    "SAFFL": "Y",
    "ITTFL": "Y",
    "PARAMCD": "AVGDD",
    "PARAM": "Average Daily Dose (mg)",
    "PARAMN": 1,
    "AVAL": 54,
    "AVISIT": "End of Study",
    "AVISITN": 99
  },
  {
    "STUDYID": "CDISCPILOT01",
    "USUBJID": "01-708-1084",
    "SITEID": "708",
    "TRT01P": "Xanomeline Low Dose",
    "TRT01A": "Xanomeline Low Dose",
    "TRT01PN": 1,
    "TRTP": "Xanomeline Low Dose",
    "TRTA": "Xanomeline Low Dose",
    "TRTSDT": "2013-05-09",
    "TRTEDT": "2013-11-11",
    "SAFFL": "Y",
    "ITTFL": "Y",
    "PARAMCD": "AVGDD",
    "PARAM": "Average Daily Dose (mg)",
    "PARAMN": 1,
    "AVAL": 54,
    "AVISIT": "End of Study",
    "AVISITN": 99
  },
  {
    "STUDYID": "CDISCPILOT01",
    "USUBJID": "01-708-1087",
    "SITEID": "708",
    "TRT01P": "Placebo",
    "TRT01A": "Placebo",
    "TRT01PN": 0,
    "TRTP": "Placebo",
    "TRTA": "Placebo",
    "TRTSDT": "2012-10-22",
    "TRTEDT": "2013-04-28",
    "SAFFL": "Y",
    "ITTFL": "Y",
    "PARAMCD": "AVGDD",
    "PARAM": "Average Daily Dose (mg)",
    "PARAMN": 1,
    "AVAL": 0,
    "AVISIT": "End of Study",
    "AVISITN": 99
  },
  {
    "STUDYID": "CDISCPILOT01",
    "USUBJID": "01-708-1158",
    "SITEID": "708",
    "TRT01P": "Placebo",
    "TRT01A": "Placebo",
    "TRT01PN": 0,
    "TRTP": "Placebo",
    "TRTA": "Placebo",
    "TRTSDT": "2014-02-08",
    "TRTEDT": "2014-03-21",
    "SAFFL": "Y",
    "ITTFL": "Y",
    "PARAMCD": "AVGDD",
    "PARAM": "Average Daily Dose (mg)",
    "PARAMN": 1,
    "AVAL": 0,
    "AVISIT": "End of Study",
    "AVISITN": 99
  },
  {
    "STUDYID": "CDISCPILOT01",
    "USUBJID": "01-708-1171",
    "SITEID": "708",
    "TRT01P": "Placebo",
    "TRT01A": "Placebo",
    "TRT01PN": 0,
    "TRTP": "Placebo",
    "TRTA": "Placebo",
    "TRTSDT": "2012-12-06",
    "TRTEDT": "2013-06-04",
    "SAFFL": "Y",
    "ITTFL": "Y",
    "PARAMCD": "AVGDD",
    "PARAM": "Average Daily Dose (mg)",
    "PARAMN": 1,
    "AVAL": 0,
    "AVISIT": "End of Study",
    "AVISITN": 99
  },
  {
    "STUDYID": "CDISCPILOT01",
    "USUBJID": "01-708-1178",
    "SITEID": "708",
    "TRT01P": "Xanomeline High Dose",
    "TRT01A": "Xanomeline High Dose",
    "TRT01PN": 2,
    "TRTP": "Xanomeline High Dose",
    "TRTA": "Xanomeline High Dose",
    "TRTSDT": "2013-12-29",
    "TRTEDT": "2014-04-06",
    "SAFFL": "Y",
    "ITTFL": "Y",
    "PARAMCD": "AVGDD",
    "PARAM": "Average Daily Dose (mg)",
    "PARAMN": 1,
    "AVAL": 75.3,
    "AVISIT": "End of Study",
    "AVISITN": 99
  },
  {
    "STUDYID": "CDISCPILOT01",
    "USUBJID": "01-708-1213",
    "SITEID": "708",
    "TRT01P": "Xanomeline High Dose",
    "TRT01A": "Xanomeline Low Dose",
    "TRT01PN": 2,
    "TRTP": "Xanomeline High Dose",
    "TRTA": "Xanomeline Low Dose",
    "TRTSDT": "2013-02-09",
    "TRTEDT": "2013-02-22",
    "SAFFL": "Y",
    "ITTFL": "Y",
    "PARAMCD": "AVGDD",
    "PARAM": "Average Daily Dose (mg)",
    "PARAMN": 1,
    "AVAL": 54,
    "AVISIT": "End of Study",
    "AVISITN": 99
  },
  {
    "STUDYID": "CDISCPILOT01",
    "USUBJID": "01-708-1216",
    "SITEID": "708",
    "TRT01P": "Xanomeline High Dose",
    "TRT01A": "Xanomeline High Dose",
    "TRT01PN": 2,
    "TRTP": "Xanomeline High Dose",
    "TRTA": "Xanomeline High Dose",
    "TRTSDT": "2012-10-24",
    "TRTEDT": "2012-11-29",
    "SAFFL": "Y",
    "ITTFL": "Y",
    "PARAMCD": "AVGDD",
    "PARAM": "Average Daily Dose (mg)",
    "PARAMN": 1,
    "AVAL": 69.3,
    "AVISIT": "End of Study",
    "AVISITN": 99
  },
  {
    "STUDYID": "CDISCPILOT01",
    "USUBJID": "01-708-1236",
    "SITEID": "708",
    "TRT01P": "Xanomeline High Dose",
    "TRT01A": "Xanomeline Low Dose",
    "TRT01PN": 2,
    "TRTP": "Xanomeline High Dose",
    "TRTA": "Xanomeline Low Dose",
    "TRTSDT": "2013-09-21",
    "TRTEDT": "2013-09-21",
    "SAFFL": "Y",
    "ITTFL": "Y",
    "PARAMCD": "AVGDD",
    "PARAM": "Average Daily Dose (mg)",
    "PARAMN": 1,
    "AVAL": 54,
    "AVISIT": "End of Study",
    "AVISITN": 99
  },
  {
    "STUDYID": "CDISCPILOT01",
    "USUBJID": "01-708-1253",
    "SITEID": "708",
    "TRT01P": "Placebo",
    "TRT01A": "Placebo",
    "TRT01PN": 0,
    "TRTP": "Placebo",
    "TRTA": "Placebo",
    "TRTSDT": "2013-05-07",
    "TRTEDT": "2013-11-05",
    "SAFFL": "Y",
    "ITTFL": "Y",
    "PARAMCD": "AVGDD",
    "PARAM": "Average Daily Dose (mg)",
    "PARAMN": 1,
    "AVAL": 0,
    "AVISIT": "End of Study",
    "AVISITN": 99
  },
  {
    "STUDYID": "CDISCPILOT01",
    "USUBJID": "01-708-1272",
    "SITEID": "708",
    "TRT01P": "Xanomeline Low Dose",
    "TRT01A": "Xanomeline Low Dose",
    "TRT01PN": 1,
    "TRTP": "Xanomeline Low Dose",
    "TRTA": "Xanomeline Low Dose",
    "TRTSDT": "2013-02-06",
    "TRTEDT": "2013-03-22",
    "SAFFL": "Y",
    "ITTFL": "Y",
    "PARAMCD": "AVGDD",
    "PARAM": "Average Daily Dose (mg)",
    "PARAMN": 1,
    "AVAL": 54,
    "AVISIT": "End of Study",
    "AVISITN": 99
  },
  {
    "STUDYID": "CDISCPILOT01",
    "USUBJID": "01-708-1286",
    "SITEID": "708",
    "TRT01P": "Placebo",
    "TRT01A": "Placebo",
    "TRT01PN": 0,
    "TRTP": "Placebo",
    "TRTA": "Placebo",
    "TRTSDT": "2013-09-10",
    "TRTEDT": "2014-03-08",
    "SAFFL": "Y",
    "ITTFL": "Y",
    "PARAMCD": "AVGDD",
    "PARAM": "Average Daily Dose (mg)",
    "PARAMN": 1,
    "AVAL": 0,
    "AVISIT": "End of Study",
    "AVISITN": 99
  },
  {
    "STUDYID": "CDISCPILOT01",
    "USUBJID": "01-708-1296",
    "SITEID": "708",
    "TRT01P": "Placebo",
    "TRT01A": "Placebo",
    "TRT01PN": 0,
    "TRTP": "Placebo",
    "TRTA": "Placebo",
    "TRTSDT": "2013-06-14",
    "TRTEDT": "2013-12-12",
    "SAFFL": "Y",
    "ITTFL": "Y",
    "PARAMCD": "AVGDD",
    "PARAM": "Average Daily Dose (mg)",
    "PARAMN": 1,
    "AVAL": 0,
    "AVISIT": "End of Study",
    "AVISITN": 99
  },
  {
    "STUDYID": "CDISCPILOT01",
    "USUBJID": "01-708-1297",
    "SITEID": "708",
    "TRT01P": "Xanomeline Low Dose",
    "TRT01A": "Xanomeline Low Dose",
    "TRT01PN": 1,
    "TRTP": "Xanomeline Low Dose",
    "TRTA": "Xanomeline Low Dose",
    "TRTSDT": "2013-01-25",
    "TRTEDT": "2013-05-03",
    "SAFFL": "Y",
    "ITTFL": "Y",
    "PARAMCD": "AVGDD",
    "PARAM": "Average Daily Dose (mg)",
    "PARAMN": 1,
    "AVAL": 54,
    "AVISIT": "End of Study",
    "AVISITN": 99
  },
  {
    "STUDYID": "CDISCPILOT01",
    "USUBJID": "01-708-1316",
    "SITEID": "708",
    "TRT01P": "Placebo",
    "TRT01A": "Placebo",
    "TRT01PN": 0,
    "TRTP": "Placebo",
    "TRTA": "Placebo",
    "TRTSDT": "2013-08-23",
    "TRTEDT": "2014-03-01",
    "SAFFL": "Y",
    "ITTFL": "Y",
    "PARAMCD": "AVGDD",
    "PARAM": "Average Daily Dose (mg)",
    "PARAMN": 1,
    "AVAL": 0,
    "AVISIT": "End of Study",
    "AVISITN": 99
  },
  {
    "STUDYID": "CDISCPILOT01",
    "USUBJID": "01-708-1336",
    "SITEID": "708",
    "TRT01P": "Xanomeline High Dose",
    "TRT01A": "Xanomeline High Dose",
    "TRT01PN": 2,
    "TRTP": "Xanomeline High Dose",
    "TRTA": "Xanomeline High Dose",
    "TRTSDT": "2012-12-07",
    "TRTEDT": "2013-06-05",
    "SAFFL": "Y",
    "ITTFL": "Y",
    "PARAMCD": "AVGDD",
    "PARAM": "Average Daily Dose (mg)",
    "PARAMN": 1,
    "AVAL": 76.7,
    "AVISIT": "End of Study",
    "AVISITN": 99
  },
  {
    "STUDYID": "CDISCPILOT01",
    "USUBJID": "01-708-1342",
    "SITEID": "708",
    "TRT01P": "Placebo",
    "TRT01A": "Placebo",
    "TRT01PN": 0,
    "TRTP": "Placebo",
    "TRTA": "Placebo",
    "TRTSDT": "2012-12-29",
    "TRTEDT": "2013-06-28",
    "SAFFL": "Y",
    "ITTFL": "Y",
    "PARAMCD": "AVGDD",
    "PARAM": "Average Daily Dose (mg)",
    "PARAMN": 1,
    "AVAL": 0,
    "AVISIT": "End of Study",
    "AVISITN": 99
  },
  {
    "STUDYID": "CDISCPILOT01",
    "USUBJID": "01-708-1347",
    "SITEID": "708",
    "TRT01P": "Xanomeline High Dose",
    "TRT01A": "Xanomeline High Dose",
    "TRT01PN": 2,
    "TRTP": "Xanomeline High Dose",
    "TRTA": "Xanomeline High Dose",
    "TRTSDT": "2013-04-20",
    "TRTEDT": "2013-06-18",
    "SAFFL": "Y",
    "ITTFL": "Y",
    "PARAMCD": "AVGDD",
    "PARAM": "Average Daily Dose (mg)",
    "PARAMN": 1,
    "AVAL": 74.2,
    "AVISIT": "End of Study",
    "AVISITN": 99
  },
  {
    "STUDYID": "CDISCPILOT01",
    "USUBJID": "01-708-1348",
    "SITEID": "708",
    "TRT01P": "Xanomeline Low Dose",
    "TRT01A": "Xanomeline Low Dose",
    "TRT01PN": 1,
    "TRTP": "Xanomeline Low Dose",
    "TRTA": "Xanomeline Low Dose",
    "TRTSDT": "2013-08-05",
    "TRTEDT": "2014-02-13",
    "SAFFL": "Y",
    "ITTFL": "Y",
    "PARAMCD": "AVGDD",
    "PARAM": "Average Daily Dose (mg)",
    "PARAMN": 1,
    "AVAL": 54,
    "AVISIT": "End of Study",
    "AVISITN": 99
  },
  {
    "STUDYID": "CDISCPILOT01",
    "USUBJID": "01-708-1353",
    "SITEID": "708",
    "TRT01P": "Xanomeline Low Dose",
    "TRT01A": "Xanomeline Low Dose",
    "TRT01PN": 1,
    "TRTP": "Xanomeline Low Dose",
    "TRTA": "Xanomeline Low Dose",
    "TRTSDT": "2013-07-04",
    "TRTEDT": "2013-08-28",
    "SAFFL": "Y",
    "ITTFL": "Y",
    "PARAMCD": "AVGDD",
    "PARAM": "Average Daily Dose (mg)",
    "PARAMN": 1,
    "AVAL": 54,
    "AVISIT": "End of Study",
    "AVISITN": 99
  },
  {
    "STUDYID": "CDISCPILOT01",
    "USUBJID": "01-708-1372",
    "SITEID": "708",
    "TRT01P": "Xanomeline High Dose",
    "TRT01A": "Xanomeline Low Dose",
    "TRT01PN": 2,
    "TRTP": "Xanomeline High Dose",
    "TRTA": "Xanomeline Low Dose",
    "TRTSDT": "2013-04-12",
    "TRTEDT": "2013-04-19",
    "SAFFL": "Y",
    "ITTFL": "Y",
    "PARAMCD": "AVGDD",
    "PARAM": "Average Daily Dose (mg)",
    "PARAMN": 1,
    "AVAL": 54,
    "AVISIT": "End of Study",
    "AVISITN": 99
  },
  {
    "STUDYID": "CDISCPILOT01",
    "USUBJID": "01-708-1378",
    "SITEID": "708",
    "TRT01P": "Placebo",
    "TRT01A": "Placebo",
    "TRT01PN": 0,
    "TRTP": "Placebo",
    "TRTA": "Placebo",
    "TRTSDT": "2013-09-03",
    "TRTEDT": "2014-01-28",
    "SAFFL": "Y",
    "ITTFL": "Y",
    "PARAMCD": "AVGDD",
    "PARAM": "Average Daily Dose (mg)",
    "PARAMN": 1,
    "AVAL": 0,
    "AVISIT": "End of Study",
    "AVISITN": 99
  },
  {
    "STUDYID": "CDISCPILOT01",
    "USUBJID": "01-708-1406",
    "SITEID": "708",
    "TRT01P": "Xanomeline High Dose",
    "TRT01A": "Xanomeline High Dose",
    "TRT01PN": 2,
    "TRTP": "Xanomeline High Dose",
    "TRTA": "Xanomeline High Dose",
    "TRTSDT": "2013-12-26",
    "TRTEDT": "2014-07-02",
    "SAFFL": "Y",
    "ITTFL": "Y",
    "PARAMCD": "AVGDD",
    "PARAM": "Average Daily Dose (mg)",
    "PARAMN": 1,
    "AVAL": 76.6,
    "AVISIT": "End of Study",
    "AVISITN": 99
  },
  {
    "STUDYID": "CDISCPILOT01",
    "USUBJID": "01-708-1428",
    "SITEID": "708",
    "TRT01P": "Xanomeline Low Dose",
    "TRT01A": "Xanomeline Low Dose",
    "TRT01PN": 1,
    "TRTP": "Xanomeline Low Dose",
    "TRTA": "Xanomeline Low Dose",
    "TRTSDT": "2013-11-09",
    "TRTEDT": "2013-12-14",
    "SAFFL": "Y",
    "ITTFL": "Y",
    "PARAMCD": "AVGDD",
    "PARAM": "Average Daily Dose (mg)",
    "PARAMN": 1,
    "AVAL": 54,
    "AVISIT": "End of Study",
    "AVISITN": 99
  },
  {
    "STUDYID": "CDISCPILOT01",
    "USUBJID": "01-709-1001",
    "SITEID": "709",
    "TRT01P": "Placebo",
    "TRT01A": "Placebo",
    "TRT01PN": 0,
    "TRTP": "Placebo",
    "TRTA": "Placebo",
    "TRTSDT": "2013-10-08",
    "TRTEDT": "2014-04-08",
    "SAFFL": "Y",
    "ITTFL": "Y",
    "PARAMCD": "AVGDD",
    "PARAM": "Average Daily Dose (mg)",
    "PARAMN": 1,
    "AVAL": 0,
    "AVISIT": "End of Study",
    "AVISITN": 99
  },
  {
    "STUDYID": "CDISCPILOT01",
    "USUBJID": "01-709-1007",
    "SITEID": "709",
    "TRT01P": "Xanomeline Low Dose",
    "TRT01A": "Xanomeline Low Dose",
    "TRT01PN": 1,
    "TRTP": "Xanomeline Low Dose",
    "TRTA": "Xanomeline Low Dose",
    "TRTSDT": "2012-07-31",
    "TRTEDT": "2012-08-28",
    "SAFFL": "Y",
    "ITTFL": "Y",
    "PARAMCD": "AVGDD",
    "PARAM": "Average Daily Dose (mg)",
    "PARAMN": 1,
    "AVAL": 54,
    "AVISIT": "End of Study",
    "AVISITN": 99
  },
  {
    "STUDYID": "CDISCPILOT01",
    "USUBJID": "01-709-1020",
    "SITEID": "709",
    "TRT01P": "Xanomeline Low Dose",
    "TRT01A": "Xanomeline Low Dose",
    "TRT01PN": 1,
    "TRTP": "Xanomeline Low Dose",
    "TRTA": "Xanomeline Low Dose",
    "TRTSDT": "2012-12-01",
    "TRTEDT": "2013-06-01",
    "SAFFL": "Y",
    "ITTFL": "Y",
    "PARAMCD": "AVGDD",
    "PARAM": "Average Daily Dose (mg)",
    "PARAMN": 1,
    "AVAL": 54,
    "AVISIT": "End of Study",
    "AVISITN": 99
  },
  {
    "STUDYID": "CDISCPILOT01",
    "USUBJID": "01-709-1029",
    "SITEID": "709",
    "TRT01P": "Xanomeline High Dose",
    "TRT01A": "Xanomeline High Dose",
    "TRT01PN": 2,
    "TRTP": "Xanomeline High Dose",
    "TRTA": "Xanomeline High Dose",
    "TRTSDT": "2012-12-25",
    "TRTEDT": "2013-06-26",
    "SAFFL": "Y",
    "ITTFL": "Y",
    "PARAMCD": "AVGDD",
    "PARAM": "Average Daily Dose (mg)",
    "PARAMN": 1,
    "AVAL": 76.6,
    "AVISIT": "End of Study",
    "AVISITN": 99
  },
  {
    "STUDYID": "CDISCPILOT01",
    "USUBJID": "01-709-1081",
    "SITEID": "709",
    "TRT01P": "Xanomeline Low Dose",
    "TRT01A": "Xanomeline Low Dose",
    "TRT01PN": 1,
    "TRTP": "Xanomeline Low Dose",
    "TRTA": "Xanomeline Low Dose",
    "TRTSDT": "2014-01-18",
    "TRTEDT": "2014-04-27",
    "SAFFL": "Y",
    "ITTFL": "Y",
    "PARAMCD": "AVGDD",
    "PARAM": "Average Daily Dose (mg)",
    "PARAMN": 1,
    "AVAL": 54,
    "AVISIT": "End of Study",
    "AVISITN": 99
  },
  {
    "STUDYID": "CDISCPILOT01",
    "USUBJID": "01-709-1088",
    "SITEID": "709",
    "TRT01P": "Placebo",
    "TRT01A": "Placebo",
    "TRT01PN": 0,
    "TRTP": "Placebo",
    "TRTA": "Placebo",
    "TRTSDT": "2014-04-12",
    "TRTEDT": "2014-10-09",
    "SAFFL": "Y",
    "ITTFL": "Y",
    "PARAMCD": "AVGDD",
    "PARAM": "Average Daily Dose (mg)",
    "PARAMN": 1,
    "AVAL": 0,
    "AVISIT": "End of Study",
    "AVISITN": 99
  },
  {
    "STUDYID": "CDISCPILOT01",
    "USUBJID": "01-709-1099",
    "SITEID": "709",
    "TRT01P": "Xanomeline High Dose",
    "TRT01A": "Xanomeline High Dose",
    "TRT01PN": 2,
    "TRTP": "Xanomeline High Dose",
    "TRTA": "Xanomeline High Dose",
    "TRTSDT": "2013-10-25",
    "TRTEDT": "2014-04-25",
    "SAFFL": "Y",
    "ITTFL": "Y",
    "PARAMCD": "AVGDD",
    "PARAM": "Average Daily Dose (mg)",
    "PARAMN": 1,
    "AVAL": 76.1,
    "AVISIT": "End of Study",
    "AVISITN": 99
  },
  {
    "STUDYID": "CDISCPILOT01",
    "USUBJID": "01-709-1102",
    "SITEID": "709",
    "TRT01P": "Xanomeline Low Dose",
    "TRT01A": "Xanomeline Low Dose",
    "TRT01PN": 1,
    "TRTP": "Xanomeline Low Dose",
    "TRTA": "Xanomeline Low Dose",
    "TRTSDT": "2013-01-15",
    "TRTEDT": "2013-03-27",
    "SAFFL": "Y",
    "ITTFL": "Y",
    "PARAMCD": "AVGDD",
    "PARAM": "Average Daily Dose (mg)",
    "PARAMN": 1,
    "AVAL": 54,
    "AVISIT": "End of Study",
    "AVISITN": 99
  },
  {
    "STUDYID": "CDISCPILOT01",
    "USUBJID": "01-709-1168",
    "SITEID": "709",
    "TRT01P": "Xanomeline High Dose",
    "TRT01A": "Xanomeline High Dose",
    "TRT01PN": 2,
    "TRTP": "Xanomeline High Dose",
    "TRTA": "Xanomeline High Dose",
    "TRTSDT": "2013-08-02",
    "TRTEDT": "2013-09-26",
    "SAFFL": "Y",
    "ITTFL": "Y",
    "PARAMCD": "AVGDD",
    "PARAM": "Average Daily Dose (mg)",
    "PARAMN": 1,
    "AVAL": 73.3,
    "AVISIT": "End of Study",
    "AVISITN": 99
  },
  {
    "STUDYID": "CDISCPILOT01",
    "USUBJID": "01-709-1217",
    "SITEID": "709",
    "TRT01P": "Xanomeline Low Dose",
    "TRT01A": "Xanomeline Low Dose",
    "TRT01PN": 1,
    "TRTP": "Xanomeline Low Dose",
    "TRTA": "Xanomeline Low Dose",
    "TRTSDT": "2013-03-04",
    "TRTEDT": "2013-06-11",
    "SAFFL": "Y",
    "ITTFL": "Y",
    "PARAMCD": "AVGDD",
    "PARAM": "Average Daily Dose (mg)",
    "PARAMN": 1,
    "AVAL": 54,
    "AVISIT": "End of Study",
    "AVISITN": 99
  },
  {
    "STUDYID": "CDISCPILOT01",
    "USUBJID": "01-709-1238",
    "SITEID": "709",
    "TRT01P": "Xanomeline High Dose",
    "TRT01A": "Xanomeline High Dose",
    "TRT01PN": 2,
    "TRTP": "Xanomeline High Dose",
    "TRTA": "Xanomeline High Dose",
    "TRTSDT": "2013-05-15",
    "TRTEDT": "2013-08-06",
    "SAFFL": "Y",
    "ITTFL": "Y",
    "PARAMCD": "AVGDD",
    "PARAM": "Average Daily Dose (mg)",
    "PARAMN": 1,
    "AVAL": 76.2,
    "AVISIT": "End of Study",
    "AVISITN": 99
  },
  {
    "STUDYID": "CDISCPILOT01",
    "USUBJID": "01-709-1259",
    "SITEID": "709",
    "TRT01P": "Placebo",
    "TRT01A": "Placebo",
    "TRT01PN": 0,
    "TRTP": "Placebo",
    "TRTA": "Placebo",
    "TRTSDT": "2013-01-26",
    "TRTEDT": "2013-06-13",
    "SAFFL": "Y",
    "ITTFL": "Y",
    "PARAMCD": "AVGDD",
    "PARAM": "Average Daily Dose (mg)",
    "PARAMN": 1,
    "AVAL": 0,
    "AVISIT": "End of Study",
    "AVISITN": 99
  },
  {
    "STUDYID": "CDISCPILOT01",
    "USUBJID": "01-709-1285",
    "SITEID": "709",
    "TRT01P": "Xanomeline Low Dose",
    "TRT01A": "Xanomeline Low Dose",
    "TRT01PN": 1,
    "TRTP": "Xanomeline Low Dose",
    "TRTA": "Xanomeline Low Dose",
    "TRTSDT": "2013-03-24",
    "TRTEDT": "2013-05-23",
    "SAFFL": "Y",
    "ITTFL": "Y",
    "PARAMCD": "AVGDD",
    "PARAM": "Average Daily Dose (mg)",
    "PARAMN": 1,
    "AVAL": 54,
    "AVISIT": "End of Study",
    "AVISITN": 99
  },
  {
    "STUDYID": "CDISCPILOT01",
    "USUBJID": "01-709-1301",
    "SITEID": "709",
    "TRT01P": "Placebo",
    "TRT01A": "Placebo",
    "TRT01PN": 0,
    "TRTP": "Placebo",
    "TRTA": "Placebo",
    "TRTSDT": "2013-07-19",
    "TRTEDT": "2014-01-17",
    "SAFFL": "Y",
    "ITTFL": "Y",
    "PARAMCD": "AVGDD",
    "PARAM": "Average Daily Dose (mg)",
    "PARAMN": 1,
    "AVAL": 0,
    "AVISIT": "End of Study",
    "AVISITN": 99
  },
  {
    "STUDYID": "CDISCPILOT01",
    "USUBJID": "01-709-1306",
    "SITEID": "709",
    "TRT01P": "Placebo",
    "TRT01A": "Placebo",
    "TRT01PN": 0,
    "TRTP": "Placebo",
    "TRTA": "Placebo",
    "TRTSDT": "2014-02-03",
    "TRTEDT": "2014-06-16",
    "SAFFL": "Y",
    "ITTFL": "Y",
    "PARAMCD": "AVGDD",
    "PARAM": "Average Daily Dose (mg)",
    "PARAMN": 1,
    "AVAL": 0,
    "AVISIT": "End of Study",
    "AVISITN": 99
  },
  {
    "STUDYID": "CDISCPILOT01",
    "USUBJID": "01-709-1309",
    "SITEID": "709",
    "TRT01P": "Xanomeline High Dose",
    "TRT01A": "Xanomeline High Dose",
    "TRT01PN": 2,
    "TRTP": "Xanomeline High Dose",
    "TRTA": "Xanomeline High Dose",
    "TRTSDT": "2013-06-19",
    "TRTEDT": "2013-12-19",
    "SAFFL": "Y",
    "ITTFL": "Y",
    "PARAMCD": "AVGDD",
    "PARAM": "Average Daily Dose (mg)",
    "PARAMN": 1,
    "AVAL": 77,
    "AVISIT": "End of Study",
    "AVISITN": 99
  },
  {
    "STUDYID": "CDISCPILOT01",
    "USUBJID": "01-709-1312",
    "SITEID": "709",
    "TRT01P": "Placebo",
    "TRT01A": "Placebo",
    "TRT01PN": 0,
    "TRTP": "Placebo",
    "TRTA": "Placebo",
    "TRTSDT": "2014-04-20",
    "TRTEDT": "2014-10-19",
    "SAFFL": "Y",
    "ITTFL": "Y",
    "PARAMCD": "AVGDD",
    "PARAM": "Average Daily Dose (mg)",
    "PARAMN": 1,
    "AVAL": 0,
    "AVISIT": "End of Study",
    "AVISITN": 99
  },
  {
    "STUDYID": "CDISCPILOT01",
    "USUBJID": "01-709-1326",
    "SITEID": "709",
    "TRT01P": "Xanomeline Low Dose",
    "TRT01A": "Xanomeline Low Dose",
    "TRT01PN": 1,
    "TRTP": "Xanomeline Low Dose",
    "TRTA": "Xanomeline Low Dose",
    "TRTSDT": "2013-04-05",
    "TRTEDT": "2013-10-02",
    "SAFFL": "Y",
    "ITTFL": "Y",
    "PARAMCD": "AVGDD",
    "PARAM": "Average Daily Dose (mg)",
    "PARAMN": 1,
    "AVAL": 54,
    "AVISIT": "End of Study",
    "AVISITN": 99
  },
  {
    "STUDYID": "CDISCPILOT01",
    "USUBJID": "01-709-1329",
    "SITEID": "709",
    "TRT01P": "Xanomeline High Dose",
    "TRT01A": "Xanomeline Low Dose",
    "TRT01PN": 2,
    "TRTP": "Xanomeline High Dose",
    "TRTA": "Xanomeline Low Dose",
    "TRTSDT": "2013-08-15",
    "TRTEDT": "2013-08-25",
    "SAFFL": "Y",
    "ITTFL": "Y",
    "PARAMCD": "AVGDD",
    "PARAM": "Average Daily Dose (mg)",
    "PARAMN": 1,
    "AVAL": 54,
    "AVISIT": "End of Study",
    "AVISITN": 99
  },
  {
    "STUDYID": "CDISCPILOT01",
    "USUBJID": "01-709-1339",
    "SITEID": "709",
    "TRT01P": "Placebo",
    "TRT01A": "Placebo",
    "TRT01PN": 0,
    "TRTP": "Placebo",
    "TRTA": "Placebo",
    "TRTSDT": "2012-12-23",
    "TRTEDT": "2013-06-24",
    "SAFFL": "Y",
    "ITTFL": "Y",
    "PARAMCD": "AVGDD",
    "PARAM": "Average Daily Dose (mg)",
    "PARAMN": 1,
    "AVAL": 0,
    "AVISIT": "End of Study",
    "AVISITN": 99
  },
  {
    "STUDYID": "CDISCPILOT01",
    "USUBJID": "01-709-1424",
    "SITEID": "709",
    "TRT01P": "Xanomeline High Dose",
    "TRT01A": "Xanomeline Low Dose",
    "TRT01PN": 2,
    "TRTP": "Xanomeline High Dose",
    "TRTA": "Xanomeline Low Dose",
    "TRTSDT": "2013-03-03",
    "TRTEDT": "2013-03-07",
    "SAFFL": "Y",
    "ITTFL": "Y",
    "PARAMCD": "AVGDD",
    "PARAM": "Average Daily Dose (mg)",
    "PARAMN": 1,
    "AVAL": 54,
    "AVISIT": "End of Study",
    "AVISITN": 99
  },
  {
    "STUDYID": "CDISCPILOT01",
    "USUBJID": "01-710-1002",
    "SITEID": "710",
    "TRT01P": "Xanomeline Low Dose",
    "TRT01A": "Xanomeline Low Dose",
    "TRT01PN": 1,
    "TRTP": "Xanomeline Low Dose",
    "TRTA": "Xanomeline Low Dose",
    "TRTSDT": "2014-01-14",
    "TRTEDT": "2014-01-18",
    "SAFFL": "Y",
    "ITTFL": "Y",
    "PARAMCD": "AVGDD",
    "PARAM": "Average Daily Dose (mg)",
    "PARAMN": 1,
    "AVAL": 54,
    "AVISIT": "End of Study",
    "AVISITN": 99
  },
  {
    "STUDYID": "CDISCPILOT01",
    "USUBJID": "01-710-1006",
    "SITEID": "710",
    "TRT01P": "Xanomeline High Dose",
    "TRT01A": "Xanomeline High Dose",
    "TRT01PN": 2,
    "TRTP": "Xanomeline High Dose",
    "TRTA": "Xanomeline High Dose",
    "TRTSDT": "2013-02-10",
    "TRTEDT": "2013-08-09",
    "SAFFL": "Y",
    "ITTFL": "Y",
    "PARAMCD": "AVGDD",
    "PARAM": "Average Daily Dose (mg)",
    "PARAMN": 1,
    "AVAL": 77.1,
    "AVISIT": "End of Study",
    "AVISITN": 99
  },
  {
    "STUDYID": "CDISCPILOT01",
    "USUBJID": "01-710-1021",
    "SITEID": "710",
    "TRT01P": "Xanomeline High Dose",
    "TRT01A": "Xanomeline High Dose",
    "TRT01PN": 2,
    "TRTP": "Xanomeline High Dose",
    "TRTA": "Xanomeline High Dose",
    "TRTSDT": "2013-09-27",
    "TRTEDT": "2013-10-29",
    "SAFFL": "Y",
    "ITTFL": "Y",
    "PARAMCD": "AVGDD",
    "PARAM": "Average Daily Dose (mg)",
    "PARAMN": 1,
    "AVAL": 68.7,
    "AVISIT": "End of Study",
    "AVISITN": 99
  },
  {
    "STUDYID": "CDISCPILOT01",
    "USUBJID": "01-710-1027",
    "SITEID": "710",
    "TRT01P": "Placebo",
    "TRT01A": "Placebo",
    "TRT01PN": 0,
    "TRTP": "Placebo",
    "TRTA": "Placebo",
    "TRTSDT": "2014-02-28",
    "TRTEDT": "2014-08-29",
    "SAFFL": "Y",
    "ITTFL": "Y",
    "PARAMCD": "AVGDD",
    "PARAM": "Average Daily Dose (mg)",
    "PARAMN": 1,
    "AVAL": 0,
    "AVISIT": "End of Study",
    "AVISITN": 99
  },
  {
    "STUDYID": "CDISCPILOT01",
    "USUBJID": "01-710-1045",
    "SITEID": "710",
    "TRT01P": "Xanomeline Low Dose",
    "TRT01A": "Xanomeline Low Dose",
    "TRT01PN": 1,
    "TRTP": "Xanomeline Low Dose",
    "TRTA": "Xanomeline Low Dose",
    "TRTSDT": "2013-06-03",
    "TRTEDT": "2013-08-13",
    "SAFFL": "Y",
    "ITTFL": "Y",
    "PARAMCD": "AVGDD",
    "PARAM": "Average Daily Dose (mg)",
    "PARAMN": 1,
    "AVAL": 54,
    "AVISIT": "End of Study",
    "AVISITN": 99
  },
  {
    "STUDYID": "CDISCPILOT01",
    "USUBJID": "01-710-1053",
    "SITEID": "710",
    "TRT01P": "Xanomeline Low Dose",
    "TRT01A": "Xanomeline Low Dose",
    "TRT01PN": 1,
    "TRTP": "Xanomeline Low Dose",
    "TRTA": "Xanomeline Low Dose",
    "TRTSDT": "2012-12-26",
    "TRTEDT": "2013-02-10",
    "SAFFL": "Y",
    "ITTFL": "Y",
    "PARAMCD": "AVGDD",
    "PARAM": "Average Daily Dose (mg)",
    "PARAMN": 1,
    "AVAL": 54,
    "AVISIT": "End of Study",
    "AVISITN": 99
  },
  {
    "STUDYID": "CDISCPILOT01",
    "USUBJID": "01-710-1060",
    "SITEID": "710",
    "TRT01P": "Placebo",
    "TRT01A": "Placebo",
    "TRT01PN": 0,
    "TRTP": "Placebo",
    "TRTA": "Placebo",
    "TRTSDT": "2013-01-01",
    "TRTEDT": "2013-07-05",
    "SAFFL": "Y",
    "ITTFL": "Y",
    "PARAMCD": "AVGDD",
    "PARAM": "Average Daily Dose (mg)",
    "PARAMN": 1,
    "AVAL": 0,
    "AVISIT": "End of Study",
    "AVISITN": 99
  },
  {
    "STUDYID": "CDISCPILOT01",
    "USUBJID": "01-710-1070",
    "SITEID": "710",
    "TRT01P": "Xanomeline High Dose",
    "TRT01A": "Xanomeline High Dose",
    "TRT01PN": 2,
    "TRTP": "Xanomeline High Dose",
    "TRTA": "Xanomeline High Dose",
    "TRTSDT": "2012-09-08",
    "TRTEDT": "2013-01-22",
    "SAFFL": "Y",
    "ITTFL": "Y",
    "PARAMCD": "AVGDD",
    "PARAM": "Average Daily Dose (mg)",
    "PARAMN": 1,
    "AVAL": 78,
    "AVISIT": "End of Study",
    "AVISITN": 99
  },
  {
    "STUDYID": "CDISCPILOT01",
    "USUBJID": "01-710-1077",
    "SITEID": "710",
    "TRT01P": "Placebo",
    "TRT01A": "Placebo",
    "TRT01PN": 0,
    "TRTP": "Placebo",
    "TRTA": "Placebo",
    "TRTSDT": "2013-11-17",
    "TRTEDT": "2014-05-18",
    "SAFFL": "Y",
    "ITTFL": "Y",
    "PARAMCD": "AVGDD",
    "PARAM": "Average Daily Dose (mg)",
    "PARAMN": 1,
    "AVAL": 0,
    "AVISIT": "End of Study",
    "AVISITN": 99
  },
  {
    "STUDYID": "CDISCPILOT01",
    "USUBJID": "01-710-1078",
    "SITEID": "710",
    "TRT01P": "Placebo",
    "TRT01A": "Placebo",
    "TRT01PN": 0,
    "TRTP": "Placebo",
    "TRTA": "Placebo",
    "TRTSDT": "2013-09-17",
    "TRTEDT": "2014-03-23",
    "SAFFL": "Y",
    "ITTFL": "Y",
    "PARAMCD": "AVGDD",
    "PARAM": "Average Daily Dose (mg)",
    "PARAMN": 1,
    "AVAL": 0,
    "AVISIT": "End of Study",
    "AVISITN": 99
  },
  {
    "STUDYID": "CDISCPILOT01",
    "USUBJID": "01-710-1083",
    "SITEID": "710",
    "TRT01P": "Placebo",
    "TRT01A": "Placebo",
    "TRT01PN": 0,
    "TRTP": "Placebo",
    "TRTA": "Placebo",
    "TRTSDT": "2013-07-22",
    "TRTEDT": "2013-08-01",
    "SAFFL": "Y",
    "ITTFL": "Y",
    "PARAMCD": "AVGDD",
    "PARAM": "Average Daily Dose (mg)",
    "PARAMN": 1,
    "AVAL": 0,
    "AVISIT": "End of Study",
    "AVISITN": 99
  },
  {
    "STUDYID": "CDISCPILOT01",
    "USUBJID": "01-710-1137",
    "SITEID": "710",
    "TRT01P": "Xanomeline High Dose",
    "TRT01A": "Xanomeline High Dose",
    "TRT01PN": 2,
    "TRTP": "Xanomeline High Dose",
    "TRTA": "Xanomeline High Dose",
    "TRTSDT": "2013-10-11",
    "TRTEDT": "2013-11-13",
    "SAFFL": "Y",
    "ITTFL": "Y",
    "PARAMCD": "AVGDD",
    "PARAM": "Average Daily Dose (mg)",
    "PARAMN": 1,
    "AVAL": 69.1,
    "AVISIT": "End of Study",
    "AVISITN": 99
  },
  {
    "STUDYID": "CDISCPILOT01",
    "USUBJID": "01-710-1142",
    "SITEID": "710",
    "TRT01P": "Xanomeline High Dose",
    "TRT01A": "Xanomeline High Dose",
    "TRT01PN": 2,
    "TRTP": "Xanomeline High Dose",
    "TRTA": "Xanomeline High Dose",
    "TRTSDT": "2012-10-02",
    "TRTEDT": "2012-10-20",
    "SAFFL": "Y",
    "ITTFL": "Y",
    "PARAMCD": "AVGDD",
    "PARAM": "Average Daily Dose (mg)",
    "PARAMN": 1,
    "AVAL": 59.7,
    "AVISIT": "End of Study",
    "AVISITN": 99
  },
  {
    "STUDYID": "CDISCPILOT01",
    "USUBJID": "01-710-1154",
    "SITEID": "710",
    "TRT01P": "Xanomeline Low Dose",
    "TRT01A": "Xanomeline Low Dose",
    "TRT01PN": 1,
    "TRTP": "Xanomeline Low Dose",
    "TRTA": "Xanomeline Low Dose",
    "TRTSDT": "2014-03-29",
    "TRTEDT": "2014-04-27",
    "SAFFL": "Y",
    "ITTFL": "Y",
    "PARAMCD": "AVGDD",
    "PARAM": "Average Daily Dose (mg)",
    "PARAMN": 1,
    "AVAL": 54,
    "AVISIT": "End of Study",
    "AVISITN": 99
  },
  {
    "STUDYID": "CDISCPILOT01",
    "USUBJID": "01-710-1166",
    "SITEID": "710",
    "TRT01P": "Xanomeline Low Dose",
    "TRT01A": "Xanomeline Low Dose",
    "TRT01PN": 1,
    "TRTP": "Xanomeline Low Dose",
    "TRTA": "Xanomeline Low Dose",
    "TRTSDT": "2012-11-30",
    "TRTEDT": "2013-03-19",
    "SAFFL": "Y",
    "ITTFL": "Y",
    "PARAMCD": "AVGDD",
    "PARAM": "Average Daily Dose (mg)",
    "PARAMN": 1,
    "AVAL": 54,
    "AVISIT": "End of Study",
    "AVISITN": 99
  },
  {
    "STUDYID": "CDISCPILOT01",
    "USUBJID": "01-710-1183",
    "SITEID": "710",
    "TRT01P": "Placebo",
    "TRT01A": "Placebo",
    "TRT01PN": 0,
    "TRTP": "Placebo",
    "TRTA": "Placebo",
    "TRTSDT": "2013-11-16",
    "TRTEDT": "2014-05-17",
    "SAFFL": "Y",
    "ITTFL": "Y",
    "PARAMCD": "AVGDD",
    "PARAM": "Average Daily Dose (mg)",
    "PARAMN": 1,
    "AVAL": 0,
    "AVISIT": "End of Study",
    "AVISITN": 99
  },
  {
    "STUDYID": "CDISCPILOT01",
    "USUBJID": "01-710-1187",
    "SITEID": "710",
    "TRT01P": "Xanomeline High Dose",
    "TRT01A": "Xanomeline High Dose",
    "TRT01PN": 2,
    "TRTP": "Xanomeline High Dose",
    "TRTA": "Xanomeline High Dose",
    "TRTSDT": "2012-11-10",
    "TRTEDT": "2013-05-12",
    "SAFFL": "Y",
    "ITTFL": "Y",
    "PARAMCD": "AVGDD",
    "PARAM": "Average Daily Dose (mg)",
    "PARAMN": 1,
    "AVAL": 76.7,
    "AVISIT": "End of Study",
    "AVISITN": 99
  },
  {
    "STUDYID": "CDISCPILOT01",
    "USUBJID": "01-710-1235",
    "SITEID": "710",
    "TRT01P": "Xanomeline Low Dose",
    "TRT01A": "Xanomeline Low Dose",
    "TRT01PN": 1,
    "TRTP": "Xanomeline Low Dose",
    "TRTA": "Xanomeline Low Dose",
    "TRTSDT": "2012-09-26",
    "TRTEDT": "2013-03-27",
    "SAFFL": "Y",
    "ITTFL": "Y",
    "PARAMCD": "AVGDD",
    "PARAM": "Average Daily Dose (mg)",
    "PARAMN": 1,
    "AVAL": 54,
    "AVISIT": "End of Study",
    "AVISITN": 99
  },
  {
    "STUDYID": "CDISCPILOT01",
    "USUBJID": "01-710-1249",
    "SITEID": "710",
    "TRT01P": "Xanomeline High Dose",
    "TRT01A": "Xanomeline High Dose",
    "TRT01PN": 2,
    "TRTP": "Xanomeline High Dose",
    "TRTA": "Xanomeline High Dose",
    "TRTSDT": "2013-12-28",
    "TRTEDT": "2014-06-28",
    "SAFFL": "Y",
    "ITTFL": "Y",
    "PARAMCD": "AVGDD",
    "PARAM": "Average Daily Dose (mg)",
    "PARAMN": 1,
    "AVAL": 76.7,
    "AVISIT": "End of Study",
    "AVISITN": 99
  },
  {
    "STUDYID": "CDISCPILOT01",
    "USUBJID": "01-710-1264",
    "SITEID": "710",
    "TRT01P": "Placebo",
    "TRT01A": "Placebo",
    "TRT01PN": 0,
    "TRTP": "Placebo",
    "TRTA": "Placebo",
    "TRTSDT": "2013-06-13",
    "TRTEDT": "2013-10-11",
    "SAFFL": "Y",
    "ITTFL": "Y",
    "PARAMCD": "AVGDD",
    "PARAM": "Average Daily Dose (mg)",
    "PARAMN": 1,
    "AVAL": 0,
    "AVISIT": "End of Study",
    "AVISITN": 99
  },
  {
    "STUDYID": "CDISCPILOT01",
    "USUBJID": "01-710-1270",
    "SITEID": "710",
    "TRT01P": "Xanomeline Low Dose",
    "TRT01A": "Xanomeline Low Dose",
    "TRT01PN": 1,
    "TRTP": "Xanomeline Low Dose",
    "TRTA": "Xanomeline Low Dose",
    "TRTSDT": "2014-02-12",
    "TRTEDT": "2014-03-01",
    "SAFFL": "Y",
    "ITTFL": "Y",
    "PARAMCD": "AVGDD",
    "PARAM": "Average Daily Dose (mg)",
    "PARAMN": 1,
    "AVAL": 54,
    "AVISIT": "End of Study",
    "AVISITN": 99
  },
  {
    "STUDYID": "CDISCPILOT01",
    "USUBJID": "01-710-1271",
    "SITEID": "710",
    "TRT01P": "Placebo",
    "TRT01A": "Placebo",
    "TRT01PN": 0,
    "TRTP": "Placebo",
    "TRTA": "Placebo",
    "TRTSDT": "2012-09-27",
    "TRTEDT": "2012-11-21",
    "SAFFL": "Y",
    "ITTFL": "Y",
    "PARAMCD": "AVGDD",
    "PARAM": "Average Daily Dose (mg)",
    "PARAMN": 1,
    "AVAL": 0,
    "AVISIT": "End of Study",
    "AVISITN": 99
  },
  {
    "STUDYID": "CDISCPILOT01",
    "USUBJID": "01-710-1278",
    "SITEID": "710",
    "TRT01P": "Xanomeline High Dose",
    "TRT01A": "Xanomeline High Dose",
    "TRT01PN": 2,
    "TRTP": "Xanomeline High Dose",
    "TRTA": "Xanomeline High Dose",
    "TRTSDT": "2012-12-24",
    "TRTEDT": "2013-02-26",
    "SAFFL": "Y",
    "ITTFL": "Y",
    "PARAMCD": "AVGDD",
    "PARAM": "Average Daily Dose (mg)",
    "PARAMN": 1,
    "AVAL": 74.8,
    "AVISIT": "End of Study",
    "AVISITN": 99
  },
  {
    "STUDYID": "CDISCPILOT01",
    "USUBJID": "01-710-1300",
    "SITEID": "710",
    "TRT01P": "Xanomeline Low Dose",
    "TRT01A": "Xanomeline Low Dose",
    "TRT01PN": 1,
    "TRTP": "Xanomeline Low Dose",
    "TRTA": "Xanomeline Low Dose",
    "TRTSDT": "2012-12-15",
    "TRTEDT": "2013-02-15",
    "SAFFL": "Y",
    "ITTFL": "Y",
    "PARAMCD": "AVGDD",
    "PARAM": "Average Daily Dose (mg)",
    "PARAMN": 1,
    "AVAL": 54,
    "AVISIT": "End of Study",
    "AVISITN": 99
  },
  {
    "STUDYID": "CDISCPILOT01",
    "USUBJID": "01-710-1314",
    "SITEID": "710",
    "TRT01P": "Placebo",
    "TRT01A": "Placebo",
    "TRT01PN": 0,
    "TRTP": "Placebo",
    "TRTA": "Placebo",
    "TRTSDT": "2013-04-24",
    "TRTEDT": "2013-05-23",
    "SAFFL": "Y",
    "ITTFL": "Y",
    "PARAMCD": "AVGDD",
    "PARAM": "Average Daily Dose (mg)",
    "PARAMN": 1,
    "AVAL": 0,
    "AVISIT": "End of Study",
    "AVISITN": 99
  },
  {
    "STUDYID": "CDISCPILOT01",
    "USUBJID": "01-710-1315",
    "SITEID": "710",
    "TRT01P": "Placebo",
    "TRT01A": "Placebo",
    "TRT01PN": 0,
    "TRTP": "Placebo",
    "TRTA": "Placebo",
    "TRTSDT": "2013-02-27",
    "TRTEDT": "2013-07-06",
    "SAFFL": "Y",
    "ITTFL": "Y",
    "PARAMCD": "AVGDD",
    "PARAM": "Average Daily Dose (mg)",
    "PARAMN": 1,
    "AVAL": 0,
    "AVISIT": "End of Study",
    "AVISITN": 99
  },
  {
    "STUDYID": "CDISCPILOT01",
    "USUBJID": "01-710-1354",
    "SITEID": "710",
    "TRT01P": "Xanomeline High Dose",
    "TRT01A": "Xanomeline High Dose",
    "TRT01PN": 2,
    "TRTP": "Xanomeline High Dose",
    "TRTA": "Xanomeline High Dose",
    "TRTSDT": "2012-11-11",
    "TRTEDT": "2013-05-01",
    "SAFFL": "Y",
    "ITTFL": "Y",
    "PARAMCD": "AVGDD",
    "PARAM": "Average Daily Dose (mg)",
    "PARAMN": 1,
    "AVAL": 77.1,
    "AVISIT": "End of Study",
    "AVISITN": 99
  },
  {
    "STUDYID": "CDISCPILOT01",
    "USUBJID": "01-710-1358",
    "SITEID": "710",
    "TRT01P": "Xanomeline Low Dose",
    "TRT01A": "Xanomeline Low Dose",
    "TRT01PN": 1,
    "TRTP": "Xanomeline Low Dose",
    "TRTA": "Xanomeline Low Dose",
    "TRTSDT": "2012-09-17",
    "TRTEDT": "2013-02-09",
    "SAFFL": "Y",
    "ITTFL": "Y",
    "PARAMCD": "AVGDD",
    "PARAM": "Average Daily Dose (mg)",
    "PARAMN": 1,
    "AVAL": 54,
    "AVISIT": "End of Study",
    "AVISITN": 99
  },
  {
    "STUDYID": "CDISCPILOT01",
    "USUBJID": "01-710-1368",
    "SITEID": "710",
    "TRT01P": "Placebo",
    "TRT01A": "Placebo",
    "TRT01PN": 0,
    "TRTP": "Placebo",
    "TRTA": "Placebo",
    "TRTSDT": "2013-10-23",
    "TRTEDT": "2014-04-24",
    "SAFFL": "Y",
    "ITTFL": "Y",
    "PARAMCD": "AVGDD",
    "PARAM": "Average Daily Dose (mg)",
    "PARAMN": 1,
    "AVAL": 0,
    "AVISIT": "End of Study",
    "AVISITN": 99
  },
  {
    "STUDYID": "CDISCPILOT01",
    "USUBJID": "01-710-1385",
    "SITEID": "710",
    "TRT01P": "Xanomeline Low Dose",
    "TRT01A": "Xanomeline Low Dose",
    "TRT01PN": 1,
    "TRTP": "Xanomeline Low Dose",
    "TRTA": "Xanomeline Low Dose",
    "TRTSDT": "2012-10-29",
    "TRTEDT": "2013-02-18",
    "SAFFL": "Y",
    "ITTFL": "Y",
    "PARAMCD": "AVGDD",
    "PARAM": "Average Daily Dose (mg)",
    "PARAMN": 1,
    "AVAL": 54,
    "AVISIT": "End of Study",
    "AVISITN": 99
  },
  {
    "STUDYID": "CDISCPILOT01",
    "USUBJID": "01-710-1408",
    "SITEID": "710",
    "TRT01P": "Xanomeline High Dose",
    "TRT01A": "Xanomeline High Dose",
    "TRT01PN": 2,
    "TRTP": "Xanomeline High Dose",
    "TRTA": "Xanomeline High Dose",
    "TRTSDT": "2013-01-05",
    "TRTEDT": "2013-07-12",
    "SAFFL": "Y",
    "ITTFL": "Y",
    "PARAMCD": "AVGDD",
    "PARAM": "Average Daily Dose (mg)",
    "PARAMN": 1,
    "AVAL": 76.1,
    "AVISIT": "End of Study",
    "AVISITN": 99
  },
  {
    "STUDYID": "CDISCPILOT01",
    "USUBJID": "01-711-1012",
    "SITEID": "711",
    "TRT01P": "Xanomeline High Dose",
    "TRT01A": "Xanomeline High Dose",
    "TRT01PN": 2,
    "TRTP": "Xanomeline High Dose",
    "TRTA": "Xanomeline High Dose",
    "TRTSDT": "2013-04-03",
    "TRTEDT": "2013-04-29",
    "SAFFL": "Y",
    "ITTFL": "Y",
    "PARAMCD": "AVGDD",
    "PARAM": "Average Daily Dose (mg)",
    "PARAMN": 1,
    "AVAL": 66,
    "AVISIT": "End of Study",
    "AVISITN": 99
  },
  {
    "STUDYID": "CDISCPILOT01",
    "USUBJID": "01-711-1036",
    "SITEID": "711",
    "TRT01P": "Placebo",
    "TRT01A": "Placebo",
    "TRT01PN": 0,
    "TRTP": "Placebo",
    "TRTA": "Placebo",
    "TRTSDT": "2012-07-29",
    "TRTEDT": "2013-02-10",
    "SAFFL": "Y",
    "ITTFL": "Y",
    "PARAMCD": "AVGDD",
    "PARAM": "Average Daily Dose (mg)",
    "PARAMN": 1,
    "AVAL": 0,
    "AVISIT": "End of Study",
    "AVISITN": 99
  },
  {
    "STUDYID": "CDISCPILOT01",
    "USUBJID": "01-711-1143",
    "SITEID": "711",
    "TRT01P": "Xanomeline Low Dose",
    "TRT01A": "Xanomeline Low Dose",
    "TRT01PN": 1,
    "TRTP": "Xanomeline Low Dose",
    "TRTA": "Xanomeline Low Dose",
    "TRTSDT": "2013-04-03",
    "TRTEDT": "2013-05-30",
    "SAFFL": "Y",
    "ITTFL": "Y",
    "PARAMCD": "AVGDD",
    "PARAM": "Average Daily Dose (mg)",
    "PARAMN": 1,
    "AVAL": 54,
    "AVISIT": "End of Study",
    "AVISITN": 99
  },
  {
    "STUDYID": "CDISCPILOT01",
    "USUBJID": "01-711-1433",
    "SITEID": "711",
    "TRT01P": "Xanomeline High Dose",
    "TRT01A": "Xanomeline Low Dose",
    "TRT01PN": 2,
    "TRTP": "Xanomeline High Dose",
    "TRTA": "Xanomeline Low Dose",
    "TRTSDT": "2013-01-27",
    "TRTEDT": "2013-02-05",
    "SAFFL": "Y",
    "ITTFL": "Y",
    "PARAMCD": "AVGDD",
    "PARAM": "Average Daily Dose (mg)",
    "PARAMN": 1,
    "AVAL": 54,
    "AVISIT": "End of Study",
    "AVISITN": 99
  },
  {
    "STUDYID": "CDISCPILOT01",
    "USUBJID": "01-713-1043",
    "SITEID": "713",
    "TRT01P": "Xanomeline Low Dose",
    "TRT01A": "Xanomeline Low Dose",
    "TRT01PN": 1,
    "TRTP": "Xanomeline Low Dose",
    "TRTA": "Xanomeline Low Dose",
    "TRTSDT": "2013-09-15",
    "TRTEDT": "2014-03-24",
    "SAFFL": "Y",
    "ITTFL": "Y",
    "PARAMCD": "AVGDD",
    "PARAM": "Average Daily Dose (mg)",
    "PARAMN": 1,
    "AVAL": 54,
    "AVISIT": "End of Study",
    "AVISITN": 99
  },
  {
    "STUDYID": "CDISCPILOT01",
    "USUBJID": "01-713-1073",
    "SITEID": "713",
    "TRT01P": "Xanomeline Low Dose",
    "TRT01A": "Xanomeline Low Dose",
    "TRT01PN": 1,
    "TRTP": "Xanomeline Low Dose",
    "TRTA": "Xanomeline Low Dose",
    "TRTSDT": "2014-03-30",
    "TRTEDT": "2014-10-05",
    "SAFFL": "Y",
    "ITTFL": "Y",
    "PARAMCD": "AVGDD",
    "PARAM": "Average Daily Dose (mg)",
    "PARAMN": 1,
    "AVAL": 54,
    "AVISIT": "End of Study",
    "AVISITN": 99
  },
  {
    "STUDYID": "CDISCPILOT01",
    "USUBJID": "01-713-1106",
    "SITEID": "713",
    "TRT01P": "Xanomeline High Dose",
    "TRT01A": "Xanomeline High Dose",
    "TRT01PN": 2,
    "TRTP": "Xanomeline High Dose",
    "TRTA": "Xanomeline High Dose",
    "TRTSDT": "2012-10-31",
    "TRTEDT": "2013-05-06",
    "SAFFL": "Y",
    "ITTFL": "Y",
    "PARAMCD": "AVGDD",
    "PARAM": "Average Daily Dose (mg)",
    "PARAMN": 1,
    "AVAL": 76.7,
    "AVISIT": "End of Study",
    "AVISITN": 99
  },
  {
    "STUDYID": "CDISCPILOT01",
    "USUBJID": "01-713-1141",
    "SITEID": "713",
    "TRT01P": "Xanomeline High Dose",
    "TRT01A": "Xanomeline High Dose",
    "TRT01PN": 2,
    "TRTP": "Xanomeline High Dose",
    "TRTA": "Xanomeline High Dose",
    "TRTSDT": "2013-05-31",
    "TRTEDT": "2013-07-01",
    "SAFFL": "Y",
    "ITTFL": "Y",
    "PARAMCD": "AVGDD",
    "PARAM": "Average Daily Dose (mg)",
    "PARAMN": 1,
    "AVAL": 68.3,
    "AVISIT": "End of Study",
    "AVISITN": 99
  },
  {
    "STUDYID": "CDISCPILOT01",
    "USUBJID": "01-713-1179",
    "SITEID": "713",
    "TRT01P": "Placebo",
    "TRT01A": "Placebo",
    "TRT01PN": 0,
    "TRTP": "Placebo",
    "TRTA": "Placebo",
    "TRTSDT": "2013-08-09",
    "TRTEDT": "2014-02-05",
    "SAFFL": "Y",
    "ITTFL": "Y",
    "PARAMCD": "AVGDD",
    "PARAM": "Average Daily Dose (mg)",
    "PARAMN": 1,
    "AVAL": 0,
    "AVISIT": "End of Study",
    "AVISITN": 99
  },
  {
    "STUDYID": "CDISCPILOT01",
    "USUBJID": "01-713-1209",
    "SITEID": "713",
    "TRT01P": "Xanomeline High Dose",
    "TRT01A": "Xanomeline High Dose",
    "TRT01PN": 2,
    "TRTP": "Xanomeline High Dose",
    "TRTA": "Xanomeline High Dose",
    "TRTSDT": "2013-05-27",
    "TRTEDT": "2013-11-22",
    "SAFFL": "Y",
    "ITTFL": "Y",
    "PARAMCD": "AVGDD",
    "PARAM": "Average Daily Dose (mg)",
    "PARAMN": 1,
    "AVAL": 77,
    "AVISIT": "End of Study",
    "AVISITN": 99
  },
  {
    "STUDYID": "CDISCPILOT01",
    "USUBJID": "01-713-1256",
    "SITEID": "713",
    "TRT01P": "Placebo",
    "TRT01A": "Placebo",
    "TRT01PN": 0,
    "TRTP": "Placebo",
    "TRTA": "Placebo",
    "TRTSDT": "2012-09-19",
    "TRTEDT": "2013-03-25",
    "SAFFL": "Y",
    "ITTFL": "Y",
    "PARAMCD": "AVGDD",
    "PARAM": "Average Daily Dose (mg)",
    "PARAMN": 1,
    "AVAL": 0,
    "AVISIT": "End of Study",
    "AVISITN": 99
  },
  {
    "STUDYID": "CDISCPILOT01",
    "USUBJID": "01-713-1269",
    "SITEID": "713",
    "TRT01P": "Placebo",
    "TRT01A": "Placebo",
    "TRT01PN": 0,
    "TRTP": "Placebo",
    "TRTA": "Placebo",
    "TRTSDT": "2014-01-27",
    "TRTEDT": "2014-07-28",
    "SAFFL": "Y",
    "ITTFL": "Y",
    "PARAMCD": "AVGDD",
    "PARAM": "Average Daily Dose (mg)",
    "PARAMN": 1,
    "AVAL": 0,
    "AVISIT": "End of Study",
    "AVISITN": 99
  },
  {
    "STUDYID": "CDISCPILOT01",
    "USUBJID": "01-713-1448",
    "SITEID": "713",
    "TRT01P": "Xanomeline Low Dose",
    "TRT01A": "Xanomeline Low Dose",
    "TRT01PN": 1,
    "TRTP": "Xanomeline Low Dose",
    "TRTA": "Xanomeline Low Dose",
    "TRTSDT": "2014-01-19",
    "TRTEDT": "2014-05-16",
    "SAFFL": "Y",
    "ITTFL": "Y",
    "PARAMCD": "AVGDD",
    "PARAM": "Average Daily Dose (mg)",
    "PARAMN": 1,
    "AVAL": 54,
    "AVISIT": "End of Study",
    "AVISITN": 99
  },
  {
    "STUDYID": "CDISCPILOT01",
    "USUBJID": "01-714-1035",
    "SITEID": "714",
    "TRT01P": "Placebo",
    "TRT01A": "Placebo",
    "TRT01PN": 0,
    "TRTP": "Placebo",
    "TRTA": "Placebo",
    "TRTSDT": "2014-04-17",
    "TRTEDT": "2014-10-16",
    "SAFFL": "Y",
    "ITTFL": "Y",
    "PARAMCD": "AVGDD",
    "PARAM": "Average Daily Dose (mg)",
    "PARAMN": 1,
    "AVAL": 0,
    "AVISIT": "End of Study",
    "AVISITN": 99
  },
  {
    "STUDYID": "CDISCPILOT01",
    "USUBJID": "01-714-1068",
    "SITEID": "714",
    "TRT01P": "Xanomeline Low Dose",
    "TRT01A": "Xanomeline Low Dose",
    "TRT01PN": 1,
    "TRTP": "Xanomeline Low Dose",
    "TRTA": "Xanomeline Low Dose",
    "TRTSDT": "2013-08-08",
    "TRTEDT": "2013-10-08",
    "SAFFL": "Y",
    "ITTFL": "Y",
    "PARAMCD": "AVGDD",
    "PARAM": "Average Daily Dose (mg)",
    "PARAMN": 1,
    "AVAL": 54,
    "AVISIT": "End of Study",
    "AVISITN": 99
  },
  {
    "STUDYID": "CDISCPILOT01",
    "USUBJID": "01-714-1195",
    "SITEID": "714",
    "TRT01P": "Xanomeline Low Dose",
    "TRT01A": "Xanomeline Low Dose",
    "TRT01PN": 1,
    "TRTP": "Xanomeline Low Dose",
    "TRTA": "Xanomeline Low Dose",
    "TRTSDT": "2013-04-26",
    "TRTEDT": "2013-10-23",
    "SAFFL": "Y",
    "ITTFL": "Y",
    "PARAMCD": "AVGDD",
    "PARAM": "Average Daily Dose (mg)",
    "PARAMN": 1,
    "AVAL": 54,
    "AVISIT": "End of Study",
    "AVISITN": 99
  },
  {
    "STUDYID": "CDISCPILOT01",
    "USUBJID": "01-714-1288",
    "SITEID": "714",
    "TRT01P": "Xanomeline High Dose",
    "TRT01A": "Xanomeline High Dose",
    "TRT01PN": 2,
    "TRTP": "Xanomeline High Dose",
    "TRTA": "Xanomeline High Dose",
    "TRTSDT": "2013-12-04",
    "TRTEDT": "2014-06-17",
    "SAFFL": "Y",
    "ITTFL": "Y",
    "PARAMCD": "AVGDD",
    "PARAM": "Average Daily Dose (mg)",
    "PARAMN": 1,
    "AVAL": 76.2,
    "AVISIT": "End of Study",
    "AVISITN": 99
  },
  {
    "STUDYID": "CDISCPILOT01",
    "USUBJID": "01-714-1375",
    "SITEID": "714",
    "TRT01P": "Placebo",
    "TRT01A": "Placebo",
    "TRT01PN": 0,
    "TRTP": "Placebo",
    "TRTA": "Placebo",
    "TRTSDT": "2013-02-26",
    "TRTEDT": "2013-09-07",
    "SAFFL": "Y",
    "ITTFL": "Y",
    "PARAMCD": "AVGDD",
    "PARAM": "Average Daily Dose (mg)",
    "PARAMN": 1,
    "AVAL": 0,
    "AVISIT": "End of Study",
    "AVISITN": 99
  },
  {
    "STUDYID": "CDISCPILOT01",
    "USUBJID": "01-714-1425",
    "SITEID": "714",
    "TRT01P": "Xanomeline High Dose",
    "TRT01A": "Xanomeline Low Dose",
    "TRT01PN": 2,
    "TRTP": "Xanomeline High Dose",
    "TRTA": "Xanomeline Low Dose",
    "TRTSDT": "2013-08-15",
    "TRTEDT": "2013-08-19",
    "SAFFL": "Y",
    "ITTFL": "Y",
    "PARAMCD": "AVGDD",
    "PARAM": "Average Daily Dose (mg)",
    "PARAMN": 1,
    "AVAL": 54,
    "AVISIT": "End of Study",
    "AVISITN": 99
  },
  {
    "STUDYID": "CDISCPILOT01",
    "USUBJID": "01-715-1085",
    "SITEID": "715",
    "TRT01P": "Xanomeline Low Dose",
    "TRT01A": "Xanomeline Low Dose",
    "TRT01PN": 1,
    "TRTP": "Xanomeline Low Dose",
    "TRTA": "Xanomeline Low Dose",
    "TRTSDT": "2013-02-16",
    "TRTEDT": "2013-08-18",
    "SAFFL": "Y",
    "ITTFL": "Y",
    "PARAMCD": "AVGDD",
    "PARAM": "Average Daily Dose (mg)",
    "PARAMN": 1,
    "AVAL": 54,
    "AVISIT": "End of Study",
    "AVISITN": 99
  },
  {
    "STUDYID": "CDISCPILOT01",
    "USUBJID": "01-715-1107",
    "SITEID": "715",
    "TRT01P": "Xanomeline Low Dose",
    "TRT01A": "Xanomeline Low Dose",
    "TRT01PN": 1,
    "TRTP": "Xanomeline Low Dose",
    "TRTA": "Xanomeline Low Dose",
    "TRTSDT": "2013-02-26",
    "TRTEDT": "2013-05-07",
    "SAFFL": "Y",
    "ITTFL": "Y",
    "PARAMCD": "AVGDD",
    "PARAM": "Average Daily Dose (mg)",
    "PARAMN": 1,
    "AVAL": 54,
    "AVISIT": "End of Study",
    "AVISITN": 99
  },
  {
    "STUDYID": "CDISCPILOT01",
    "USUBJID": "01-715-1155",
    "SITEID": "715",
    "TRT01P": "Placebo",
    "TRT01A": "Placebo",
    "TRT01PN": 0,
    "TRTP": "Placebo",
    "TRTA": "Placebo",
    "TRTSDT": "2013-12-13",
    "TRTEDT": "2014-01-25",
    "SAFFL": "Y",
    "ITTFL": "Y",
    "PARAMCD": "AVGDD",
    "PARAM": "Average Daily Dose (mg)",
    "PARAMN": 1,
    "AVAL": 0,
    "AVISIT": "End of Study",
    "AVISITN": 99
  },
  {
    "STUDYID": "CDISCPILOT01",
    "USUBJID": "01-715-1207",
    "SITEID": "715",
    "TRT01P": "Placebo",
    "TRT01A": "Placebo",
    "TRT01PN": 0,
    "TRTP": "Placebo",
    "TRTA": "Placebo",
    "TRTSDT": "2012-11-18",
    "TRTEDT": "2013-05-27",
    "SAFFL": "Y",
    "ITTFL": "Y",
    "PARAMCD": "AVGDD",
    "PARAM": "Average Daily Dose (mg)",
    "PARAMN": 1,
    "AVAL": 0,
    "AVISIT": "End of Study",
    "AVISITN": 99
  },
  {
    "STUDYID": "CDISCPILOT01",
    "USUBJID": "01-715-1319",
    "SITEID": "715",
    "TRT01P": "Xanomeline High Dose",
    "TRT01A": "Xanomeline High Dose",
    "TRT01PN": 2,
    "TRTP": "Xanomeline High Dose",
    "TRTA": "Xanomeline High Dose",
    "TRTSDT": "2013-02-17",
    "TRTEDT": "2013-03-05",
    "SAFFL": "Y",
    "ITTFL": "Y",
    "PARAMCD": "AVGDD",
    "PARAM": "Average Daily Dose (mg)",
    "PARAMN": 1,
    "AVAL": 57.2,
    "AVISIT": "End of Study",
    "AVISITN": 99
  },
  {
    "STUDYID": "CDISCPILOT01",
    "USUBJID": "01-715-1321",
    "SITEID": "715",
    "TRT01P": "Xanomeline High Dose",
    "TRT01A": "Xanomeline High Dose",
    "TRT01PN": 2,
    "TRTP": "Xanomeline High Dose",
    "TRTA": "Xanomeline High Dose",
    "TRTSDT": "2014-02-11",
    "TRTEDT": "2014-04-21",
    "SAFFL": "Y",
    "ITTFL": "Y",
    "PARAMCD": "AVGDD",
    "PARAM": "Average Daily Dose (mg)",
    "PARAMN": 1,
    "AVAL": 74.8,
    "AVISIT": "End of Study",
    "AVISITN": 99
  },
  {
    "STUDYID": "CDISCPILOT01",
    "USUBJID": "01-715-1397",
    "SITEID": "715",
    "TRT01P": "Placebo",
    "TRT01A": "Placebo",
    "TRT01PN": 0,
    "TRTP": "Placebo",
    "TRTA": "Placebo",
    "TRTSDT": "2013-04-03",
    "TRTEDT": "2013-10-02",
    "SAFFL": "Y",
    "ITTFL": "Y",
    "PARAMCD": "AVGDD",
    "PARAM": "Average Daily Dose (mg)",
    "PARAMN": 1,
    "AVAL": 0,
    "AVISIT": "End of Study",
    "AVISITN": 99
  },
  {
    "STUDYID": "CDISCPILOT01",
    "USUBJID": "01-715-1405",
    "SITEID": "715",
    "TRT01P": "Xanomeline Low Dose",
    "TRT01A": "Xanomeline Low Dose",
    "TRT01PN": 1,
    "TRTP": "Xanomeline Low Dose",
    "TRTA": "Xanomeline Low Dose",
    "TRTSDT": "2013-07-06",
    "TRTEDT": "2013-07-07",
    "SAFFL": "Y",
    "ITTFL": "Y",
    "PARAMCD": "AVGDD",
    "PARAM": "Average Daily Dose (mg)",
    "PARAMN": 1,
    "AVAL": 54,
    "AVISIT": "End of Study",
    "AVISITN": 99
  },
  {
    "STUDYID": "CDISCPILOT01",
    "USUBJID": "01-716-1024",
    "SITEID": "716",
    "TRT01P": "Placebo",
    "TRT01A": "Placebo",
    "TRT01PN": 0,
    "TRTP": "Placebo",
    "TRTA": "Placebo",
    "TRTSDT": "2012-07-09",
    "TRTEDT": "2013-01-20",
    "SAFFL": "Y",
    "ITTFL": "Y",
    "PARAMCD": "AVGDD",
    "PARAM": "Average Daily Dose (mg)",
    "PARAMN": 1,
    "AVAL": 0,
    "AVISIT": "End of Study",
    "AVISITN": 99
  },
  {
    "STUDYID": "CDISCPILOT01",
    "USUBJID": "01-716-1026",
    "SITEID": "716",
    "TRT01P": "Placebo",
    "TRT01A": "Placebo",
    "TRT01PN": 0,
    "TRTP": "Placebo",
    "TRTA": "Placebo",
    "TRTSDT": "2014-04-02",
    "TRTEDT": "2014-10-16",
    "SAFFL": "Y",
    "ITTFL": "Y",
    "PARAMCD": "AVGDD",
    "PARAM": "Average Daily Dose (mg)",
    "PARAMN": 1,
    "AVAL": 0,
    "AVISIT": "End of Study",
    "AVISITN": 99
  },
  {
    "STUDYID": "CDISCPILOT01",
    "USUBJID": "01-716-1030",
    "SITEID": "716",
    "TRT01P": "Xanomeline High Dose",
    "TRT01A": "Xanomeline Low Dose",
    "TRT01PN": 2,
    "TRTP": "Xanomeline High Dose",
    "TRTA": "Xanomeline Low Dose",
    "TRTSDT": "2013-12-28",
    "TRTEDT": "2014-01-02",
    "SAFFL": "Y",
    "ITTFL": "Y",
    "PARAMCD": "AVGDD",
    "PARAM": "Average Daily Dose (mg)",
    "PARAMN": 1,
    "AVAL": 54,
    "AVISIT": "End of Study",
    "AVISITN": 99
  },
  {
    "STUDYID": "CDISCPILOT01",
    "USUBJID": "01-716-1044",
    "SITEID": "716",
    "TRT01P": "Placebo",
    "TRT01A": "Placebo",
    "TRT01PN": 0,
    "TRTP": "Placebo",
    "TRTA": "Placebo",
    "TRTSDT": "2013-04-27",
    "TRTEDT": "2013-11-03",
    "SAFFL": "Y",
    "ITTFL": "Y",
    "PARAMCD": "AVGDD",
    "PARAM": "Average Daily Dose (mg)",
    "PARAMN": 1,
    "AVAL": 0,
    "AVISIT": "End of Study",
    "AVISITN": 99
  },
  {
    "STUDYID": "CDISCPILOT01",
    "USUBJID": "01-716-1063",
    "SITEID": "716",
    "TRT01P": "Xanomeline Low Dose",
    "TRT01A": "Xanomeline Low Dose",
    "TRT01PN": 1,
    "TRTP": "Xanomeline Low Dose",
    "TRTA": "Xanomeline Low Dose",
    "TRTSDT": "2013-05-09",
    "TRTEDT": "2013-08-25",
    "SAFFL": "Y",
    "ITTFL": "Y",
    "PARAMCD": "AVGDD",
    "PARAM": "Average Daily Dose (mg)",
    "PARAMN": 1,
    "AVAL": 54,
    "AVISIT": "End of Study",
    "AVISITN": 99
  },
  {
    "STUDYID": "CDISCPILOT01",
    "USUBJID": "01-716-1071",
    "SITEID": "716",
    "TRT01P": "Xanomeline High Dose",
    "TRT01A": "Xanomeline High Dose",
    "TRT01PN": 2,
    "TRTP": "Xanomeline High Dose",
    "TRTA": "Xanomeline High Dose",
    "TRTSDT": "2013-06-08",
    "TRTEDT": "2013-08-01",
    "SAFFL": "Y",
    "ITTFL": "Y",
    "PARAMCD": "AVGDD",
    "PARAM": "Average Daily Dose (mg)",
    "PARAMN": 1,
    "AVAL": 73.6,
    "AVISIT": "End of Study",
    "AVISITN": 99
  },
  {
    "STUDYID": "CDISCPILOT01",
    "USUBJID": "01-716-1094",
    "SITEID": "716",
    "TRT01P": "Xanomeline Low Dose",
    "TRT01A": "Xanomeline Low Dose",
    "TRT01PN": 1,
    "TRTP": "Xanomeline Low Dose",
    "TRTA": "Xanomeline Low Dose",
    "TRTSDT": "2012-12-19",
    "TRTEDT": "2013-01-24",
    "SAFFL": "Y",
    "ITTFL": "Y",
    "PARAMCD": "AVGDD",
    "PARAM": "Average Daily Dose (mg)",
    "PARAMN": 1,
    "AVAL": 54,
    "AVISIT": "End of Study",
    "AVISITN": 99
  },
  {
    "STUDYID": "CDISCPILOT01",
    "USUBJID": "01-716-1103",
    "SITEID": "716",
    "TRT01P": "Xanomeline Low Dose",
    "TRT01A": "Xanomeline Low Dose",
    "TRT01PN": 1,
    "TRTP": "Xanomeline Low Dose",
    "TRTA": "Xanomeline Low Dose",
    "TRTSDT": "2014-03-20",
    "TRTEDT": "2014-09-20",
    "SAFFL": "Y",
    "ITTFL": "Y",
    "PARAMCD": "AVGDD",
    "PARAM": "Average Daily Dose (mg)",
    "PARAMN": 1,
    "AVAL": 54,
    "AVISIT": "End of Study",
    "AVISITN": 99
  },
  {
    "STUDYID": "CDISCPILOT01",
    "USUBJID": "01-716-1108",
    "SITEID": "716",
    "TRT01P": "Placebo",
    "TRT01A": "Placebo",
    "TRT01PN": 0,
    "TRTP": "Placebo",
    "TRTA": "Placebo",
    "TRTSDT": "2013-02-12",
    "TRTEDT": "2013-08-10",
    "SAFFL": "Y",
    "ITTFL": "Y",
    "PARAMCD": "AVGDD",
    "PARAM": "Average Daily Dose (mg)",
    "PARAMN": 1,
    "AVAL": 0,
    "AVISIT": "End of Study",
    "AVISITN": 99
  },
  {
    "STUDYID": "CDISCPILOT01",
    "USUBJID": "01-716-1151",
    "SITEID": "716",
    "TRT01P": "Xanomeline Low Dose",
    "TRT01A": "Xanomeline Low Dose",
    "TRT01PN": 1,
    "TRTP": "Xanomeline Low Dose",
    "TRTA": "Xanomeline Low Dose",
    "TRTSDT": "2013-02-01",
    "TRTEDT": "2013-05-11",
    "SAFFL": "Y",
    "ITTFL": "Y",
    "PARAMCD": "AVGDD",
    "PARAM": "Average Daily Dose (mg)",
    "PARAMN": 1,
    "AVAL": 54,
    "AVISIT": "End of Study",
    "AVISITN": 99
  },
  {
    "STUDYID": "CDISCPILOT01",
    "USUBJID": "01-716-1157",
    "SITEID": "716",
    "TRT01P": "Xanomeline Low Dose",
    "TRT01A": "Xanomeline Low Dose",
    "TRT01PN": 1,
    "TRTP": "Xanomeline Low Dose",
    "TRTA": "Xanomeline Low Dose",
    "TRTSDT": "2013-10-02",
    "TRTEDT": "2014-04-04",
    "SAFFL": "Y",
    "ITTFL": "Y",
    "PARAMCD": "AVGDD",
    "PARAM": "Average Daily Dose (mg)",
    "PARAMN": 1,
    "AVAL": 54,
    "AVISIT": "End of Study",
    "AVISITN": 99
  },
  {
    "STUDYID": "CDISCPILOT01",
    "USUBJID": "01-716-1160",
    "SITEID": "716",
    "TRT01P": "Placebo",
    "TRT01A": "Placebo",
    "TRT01PN": 0,
    "TRTP": "Placebo",
    "TRTA": "Placebo",
    "TRTSDT": "2013-04-05",
    "TRTEDT": "2013-10-11",
    "SAFFL": "Y",
    "ITTFL": "Y",
    "PARAMCD": "AVGDD",
    "PARAM": "Average Daily Dose (mg)",
    "PARAMN": 1,
    "AVAL": 0,
    "AVISIT": "End of Study",
    "AVISITN": 99
  },
  {
    "STUDYID": "CDISCPILOT01",
    "USUBJID": "01-716-1167",
    "SITEID": "716",
    "TRT01P": "Xanomeline Low Dose",
    "TRT01A": "Xanomeline Low Dose",
    "TRT01PN": 1,
    "TRTP": "Xanomeline Low Dose",
    "TRTA": "Xanomeline Low Dose",
    "TRTSDT": "2012-10-08",
    "TRTEDT": "2013-04-12",
    "SAFFL": "Y",
    "ITTFL": "Y",
    "PARAMCD": "AVGDD",
    "PARAM": "Average Daily Dose (mg)",
    "PARAMN": 1,
    "AVAL": 54,
    "AVISIT": "End of Study",
    "AVISITN": 99
  },
  {
    "STUDYID": "CDISCPILOT01",
    "USUBJID": "01-716-1177",
    "SITEID": "716",
    "TRT01P": "Placebo",
    "TRT01A": "Placebo",
    "TRT01PN": 0,
    "TRTP": "Placebo",
    "TRTA": "Placebo",
    "TRTSDT": "2014-09-02",
    "TRTEDT": "2015-03-05",
    "SAFFL": "Y",
    "ITTFL": "Y",
    "PARAMCD": "AVGDD",
    "PARAM": "Average Daily Dose (mg)",
    "PARAMN": 1,
    "AVAL": 0,
    "AVISIT": "End of Study",
    "AVISITN": 99
  },
  {
    "STUDYID": "CDISCPILOT01",
    "USUBJID": "01-716-1189",
    "SITEID": "716",
    "TRT01P": "Xanomeline High Dose",
    "TRT01A": "Xanomeline High Dose",
    "TRT01PN": 2,
    "TRTP": "Xanomeline High Dose",
    "TRTA": "Xanomeline High Dose",
    "TRTSDT": "2012-10-09",
    "TRTEDT": "2013-02-27",
    "SAFFL": "Y",
    "ITTFL": "Y",
    "PARAMCD": "AVGDD",
    "PARAM": "Average Daily Dose (mg)",
    "PARAMN": 1,
    "AVAL": 78,
    "AVISIT": "End of Study",
    "AVISITN": 99
  },
  {
    "STUDYID": "CDISCPILOT01",
    "USUBJID": "01-716-1229",
    "SITEID": "716",
    "TRT01P": "Xanomeline High Dose",
    "TRT01A": "Xanomeline High Dose",
    "TRT01PN": 2,
    "TRTP": "Xanomeline High Dose",
    "TRTA": "Xanomeline High Dose",
    "TRTSDT": "2013-02-20",
    "TRTEDT": "2013-03-31",
    "SAFFL": "Y",
    "ITTFL": "Y",
    "PARAMCD": "AVGDD",
    "PARAM": "Average Daily Dose (mg)",
    "PARAMN": 1,
    "AVAL": 70.9,
    "AVISIT": "End of Study",
    "AVISITN": 99
  },
  {
    "STUDYID": "CDISCPILOT01",
    "USUBJID": "01-716-1298",
    "SITEID": "716",
    "TRT01P": "Xanomeline Low Dose",
    "TRT01A": "Xanomeline Low Dose",
    "TRT01PN": 1,
    "TRTP": "Xanomeline Low Dose",
    "TRTA": "Xanomeline Low Dose",
    "TRTSDT": "2013-04-08",
    "TRTEDT": "2013-06-28",
    "SAFFL": "Y",
    "ITTFL": "Y",
    "PARAMCD": "AVGDD",
    "PARAM": "Average Daily Dose (mg)",
    "PARAMN": 1,
    "AVAL": 54,
    "AVISIT": "End of Study",
    "AVISITN": 99
  },
  {
    "STUDYID": "CDISCPILOT01",
    "USUBJID": "01-716-1308",
    "SITEID": "716",
    "TRT01P": "Placebo",
    "TRT01A": "Placebo",
    "TRT01PN": 0,
    "TRTP": "Placebo",
    "TRTA": "Placebo",
    "TRTSDT": "2013-08-28",
    "TRTEDT": "2013-10-07",
    "SAFFL": "Y",
    "ITTFL": "Y",
    "PARAMCD": "AVGDD",
    "PARAM": "Average Daily Dose (mg)",
    "PARAMN": 1,
    "AVAL": 0,
    "AVISIT": "End of Study",
    "AVISITN": 99
  },
  {
    "STUDYID": "CDISCPILOT01",
    "USUBJID": "01-716-1311",
    "SITEID": "716",
    "TRT01P": "Xanomeline Low Dose",
    "TRT01A": "Xanomeline Low Dose",
    "TRT01PN": 1,
    "TRTP": "Xanomeline Low Dose",
    "TRTA": "Xanomeline Low Dose",
    "TRTSDT": "2014-05-14",
    "TRTEDT": "2014-09-21",
    "SAFFL": "Y",
    "ITTFL": "Y",
    "PARAMCD": "AVGDD",
    "PARAM": "Average Daily Dose (mg)",
    "PARAMN": 1,
    "AVAL": 54,
    "AVISIT": "End of Study",
    "AVISITN": 99
  },
  {
    "STUDYID": "CDISCPILOT01",
    "USUBJID": "01-716-1364",
    "SITEID": "716",
    "TRT01P": "Xanomeline High Dose",
    "TRT01A": "Xanomeline High Dose",
    "TRT01PN": 2,
    "TRTP": "Xanomeline High Dose",
    "TRTA": "Xanomeline High Dose",
    "TRTSDT": "2013-07-04",
    "TRTEDT": "2014-01-09",
    "SAFFL": "Y",
    "ITTFL": "Y",
    "PARAMCD": "AVGDD",
    "PARAM": "Average Daily Dose (mg)",
    "PARAMN": 1,
    "AVAL": 76.6,
    "AVISIT": "End of Study",
    "AVISITN": 99
  },
  {
    "STUDYID": "CDISCPILOT01",
    "USUBJID": "01-716-1373",
    "SITEID": "716",
    "TRT01P": "Xanomeline High Dose",
    "TRT01A": "Xanomeline High Dose",
    "TRT01PN": 2,
    "TRTP": "Xanomeline High Dose",
    "TRTA": "Xanomeline High Dose",
    "TRTSDT": "2012-12-14",
    "TRTEDT": "2013-02-27",
    "SAFFL": "Y",
    "ITTFL": "Y",
    "PARAMCD": "AVGDD",
    "PARAM": "Average Daily Dose (mg)",
    "PARAMN": 1,
    "AVAL": 75,
    "AVISIT": "End of Study",
    "AVISITN": 99
  },
  {
    "STUDYID": "CDISCPILOT01",
    "USUBJID": "01-716-1418",
    "SITEID": "716",
    "TRT01P": "Xanomeline High Dose",
    "TRT01A": "Xanomeline High Dose",
    "TRT01PN": 2,
    "TRTP": "Xanomeline High Dose",
    "TRTA": "Xanomeline High Dose",
    "TRTSDT": "2013-05-05",
    "TRTEDT": "2013-11-20",
    "SAFFL": "Y",
    "ITTFL": "Y",
    "PARAMCD": "AVGDD",
    "PARAM": "Average Daily Dose (mg)",
    "PARAMN": 1,
    "AVAL": 77.1,
    "AVISIT": "End of Study",
    "AVISITN": 99
  },
  {
    "STUDYID": "CDISCPILOT01",
    "USUBJID": "01-716-1441",
    "SITEID": "716",
    "TRT01P": "Placebo",
    "TRT01A": "Placebo",
    "TRT01PN": 0,
    "TRTP": "Placebo",
    "TRTA": "Placebo",
    "TRTSDT": "2014-01-22",
    "TRTEDT": "2014-07-22",
    "SAFFL": "Y",
    "ITTFL": "Y",
    "PARAMCD": "AVGDD",
    "PARAM": "Average Daily Dose (mg)",
    "PARAMN": 1,
    "AVAL": 0,
    "AVISIT": "End of Study",
    "AVISITN": 99
  },
  {
    "STUDYID": "CDISCPILOT01",
    "USUBJID": "01-716-1447",
    "SITEID": "716",
    "TRT01P": "Xanomeline High Dose",
    "TRT01A": "Xanomeline High Dose",
    "TRT01PN": 2,
    "TRTP": "Xanomeline High Dose",
    "TRTA": "Xanomeline High Dose",
    "TRTSDT": "2013-12-16",
    "TRTEDT": "2014-06-17",
    "SAFFL": "Y",
    "ITTFL": "Y",
    "PARAMCD": "AVGDD",
    "PARAM": "Average Daily Dose (mg)",
    "PARAMN": 1,
    "AVAL": 77.2,
    "AVISIT": "End of Study",
    "AVISITN": 99
  },
  {
    "STUDYID": "CDISCPILOT01",
    "USUBJID": "01-717-1004",
    "SITEID": "717",
    "TRT01P": "Xanomeline Low Dose",
    "TRT01A": "Xanomeline Low Dose",
    "TRT01PN": 1,
    "TRTP": "Xanomeline Low Dose",
    "TRTA": "Xanomeline Low Dose",
    "TRTSDT": "2014-01-14",
    "TRTEDT": "2014-07-16",
    "SAFFL": "Y",
    "ITTFL": "Y",
    "PARAMCD": "AVGDD",
    "PARAM": "Average Daily Dose (mg)",
    "PARAMN": 1,
    "AVAL": 54,
    "AVISIT": "End of Study",
    "AVISITN": 99
  },
  {
    "STUDYID": "CDISCPILOT01",
    "USUBJID": "01-717-1109",
    "SITEID": "717",
    "TRT01P": "Xanomeline High Dose",
    "TRT01A": "Xanomeline High Dose",
    "TRT01PN": 2,
    "TRTP": "Xanomeline High Dose",
    "TRTA": "Xanomeline High Dose",
    "TRTSDT": "2014-01-27",
    "TRTEDT": "2014-07-28",
    "SAFFL": "Y",
    "ITTFL": "Y",
    "PARAMCD": "AVGDD",
    "PARAM": "Average Daily Dose (mg)",
    "PARAMN": 1,
    "AVAL": 77.3,
    "AVISIT": "End of Study",
    "AVISITN": 99
  },
  {
    "STUDYID": "CDISCPILOT01",
    "USUBJID": "01-717-1174",
    "SITEID": "717",
    "TRT01P": "Xanomeline High Dose",
    "TRT01A": "Xanomeline High Dose",
    "TRT01PN": 2,
    "TRTP": "Xanomeline High Dose",
    "TRTA": "Xanomeline High Dose",
    "TRTSDT": "2013-01-22",
    "TRTEDT": "2013-07-24",
    "SAFFL": "Y",
    "ITTFL": "Y",
    "PARAMCD": "AVGDD",
    "PARAM": "Average Daily Dose (mg)",
    "PARAMN": 1,
    "AVAL": 76.5,
    "AVISIT": "End of Study",
    "AVISITN": 99
  },
  {
    "STUDYID": "CDISCPILOT01",
    "USUBJID": "01-717-1201",
    "SITEID": "717",
    "TRT01P": "Placebo",
    "TRT01A": "Placebo",
    "TRT01PN": 0,
    "TRTP": "Placebo",
    "TRTA": "Placebo",
    "TRTSDT": "2013-12-19",
    "TRTEDT": "2014-02-21",
    "SAFFL": "Y",
    "ITTFL": "Y",
    "PARAMCD": "AVGDD",
    "PARAM": "Average Daily Dose (mg)",
    "PARAMN": 1,
    "AVAL": 0,
    "AVISIT": "End of Study",
    "AVISITN": 99
  },
  {
    "STUDYID": "CDISCPILOT01",
    "USUBJID": "01-717-1344",
    "SITEID": "717",
    "TRT01P": "Placebo",
    "TRT01A": "Placebo",
    "TRT01PN": 0,
    "TRTP": "Placebo",
    "TRTA": "Placebo",
    "TRTSDT": "2014-01-11",
    "TRTEDT": "2014-03-14",
    "SAFFL": "Y",
    "ITTFL": "Y",
    "PARAMCD": "AVGDD",
    "PARAM": "Average Daily Dose (mg)",
    "PARAMN": 1,
    "AVAL": 0,
    "AVISIT": "End of Study",
    "AVISITN": 99
  },
  {
    "STUDYID": "CDISCPILOT01",
    "USUBJID": "01-717-1357",
    "SITEID": "717",
    "TRT01P": "Xanomeline High Dose",
    "TRT01A": "Xanomeline High Dose",
    "TRT01PN": 2,
    "TRTP": "Xanomeline High Dose",
    "TRTA": "Xanomeline High Dose",
    "TRTSDT": "2013-05-01",
    "TRTEDT": "2013-10-14",
    "SAFFL": "Y",
    "ITTFL": "Y",
    "PARAMCD": "AVGDD",
    "PARAM": "Average Daily Dose (mg)",
    "PARAMN": 1,
    "AVAL": 78.6,
    "AVISIT": "End of Study",
    "AVISITN": 99
  },
  {
    "STUDYID": "CDISCPILOT01",
    "USUBJID": "01-717-1446",
    "SITEID": "717",
    "TRT01P": "Xanomeline Low Dose",
    "TRT01A": "Xanomeline Low Dose",
    "TRT01PN": 1,
    "TRTP": "Xanomeline Low Dose",
    "TRTA": "Xanomeline Low Dose",
    "TRTSDT": "2013-09-01",
    "TRTEDT": "2014-03-03",
    "SAFFL": "Y",
    "ITTFL": "Y",
    "PARAMCD": "AVGDD",
    "PARAM": "Average Daily Dose (mg)",
    "PARAMN": 1,
    "AVAL": 54,
    "AVISIT": "End of Study",
    "AVISITN": 99
  },
  {
    "STUDYID": "CDISCPILOT01",
    "USUBJID": "01-718-1066",
    "SITEID": "718",
    "TRT01P": "Xanomeline Low Dose",
    "TRT01A": "Xanomeline Low Dose",
    "TRT01PN": 1,
    "TRTP": "Xanomeline Low Dose",
    "TRTA": "Xanomeline Low Dose",
    "TRTSDT": "2013-07-07",
    "TRTEDT": "2013-07-16",
    "SAFFL": "Y",
    "ITTFL": "Y",
    "PARAMCD": "AVGDD",
    "PARAM": "Average Daily Dose (mg)",
    "PARAMN": 1,
    "AVAL": 54,
    "AVISIT": "End of Study",
    "AVISITN": 99
  },
  {
    "STUDYID": "CDISCPILOT01",
    "USUBJID": "01-718-1079",
    "SITEID": "718",
    "TRT01P": "Xanomeline Low Dose",
    "TRT01A": "Xanomeline Low Dose",
    "TRT01PN": 1,
    "TRTP": "Xanomeline Low Dose",
    "TRTA": "Xanomeline Low Dose",
    "TRTSDT": "2012-09-19",
    "TRTEDT": "2012-10-31",
    "SAFFL": "Y",
    "ITTFL": "Y",
    "PARAMCD": "AVGDD",
    "PARAM": "Average Daily Dose (mg)",
    "PARAMN": 1,
    "AVAL": 54,
    "AVISIT": "End of Study",
    "AVISITN": 99
  },
  {
    "STUDYID": "CDISCPILOT01",
    "USUBJID": "01-718-1101",
    "SITEID": "718",
    "TRT01P": "Xanomeline High Dose",
    "TRT01A": "Xanomeline High Dose",
    "TRT01PN": 2,
    "TRTP": "Xanomeline High Dose",
    "TRTA": "Xanomeline High Dose",
    "TRTSDT": "2013-02-17",
    "TRTEDT": "2013-07-31",
    "SAFFL": "Y",
    "ITTFL": "Y",
    "PARAMCD": "AVGDD",
    "PARAM": "Average Daily Dose (mg)",
    "PARAMN": 1,
    "AVAL": 78.5,
    "AVISIT": "End of Study",
    "AVISITN": 99
  },
  {
    "STUDYID": "CDISCPILOT01",
    "USUBJID": "01-718-1139",
    "SITEID": "718",
    "TRT01P": "Placebo",
    "TRT01A": "Placebo",
    "TRT01PN": 0,
    "TRTP": "Placebo",
    "TRTA": "Placebo",
    "TRTSDT": "2013-05-19",
    "TRTEDT": "2013-11-17",
    "SAFFL": "Y",
    "ITTFL": "Y",
    "PARAMCD": "AVGDD",
    "PARAM": "Average Daily Dose (mg)",
    "PARAMN": 1,
    "AVAL": 0,
    "AVISIT": "End of Study",
    "AVISITN": 99
  },
  {
    "STUDYID": "CDISCPILOT01",
    "USUBJID": "01-718-1150",
    "SITEID": "718",
    "TRT01P": "Placebo",
    "TRT01A": "Placebo",
    "TRT01PN": 0,
    "TRTP": "Placebo",
    "TRTA": "Placebo",
    "TRTSDT": "2013-01-19",
    "TRTEDT": "2013-07-29",
    "SAFFL": "Y",
    "ITTFL": "Y",
    "PARAMCD": "AVGDD",
    "PARAM": "Average Daily Dose (mg)",
    "PARAMN": 1,
    "AVAL": 0,
    "AVISIT": "End of Study",
    "AVISITN": 99
  },
  {
    "STUDYID": "CDISCPILOT01",
    "USUBJID": "01-718-1170",
    "SITEID": "718",
    "TRT01P": "Xanomeline Low Dose",
    "TRT01A": "Xanomeline Low Dose",
    "TRT01PN": 1,
    "TRTP": "Xanomeline Low Dose",
    "TRTA": "Xanomeline Low Dose",
    "TRTSDT": "2013-09-16",
    "TRTEDT": "2013-10-12",
    "SAFFL": "Y",
    "ITTFL": "Y",
    "PARAMCD": "AVGDD",
    "PARAM": "Average Daily Dose (mg)",
    "PARAMN": 1,
    "AVAL": 54,
    "AVISIT": "End of Study",
    "AVISITN": 99
  },
  {
    "STUDYID": "CDISCPILOT01",
    "USUBJID": "01-718-1172",
    "SITEID": "718",
    "TRT01P": "Placebo",
    "TRT01A": "Placebo",
    "TRT01PN": 0,
    "TRTP": "Placebo",
    "TRTA": "Placebo",
    "TRTSDT": "2013-09-21",
    "TRTEDT": "2013-11-29",
    "SAFFL": "Y",
    "ITTFL": "Y",
    "PARAMCD": "AVGDD",
    "PARAM": "Average Daily Dose (mg)",
    "PARAMN": 1,
    "AVAL": 0,
    "AVISIT": "End of Study",
    "AVISITN": 99
  },
  {
    "STUDYID": "CDISCPILOT01",
    "USUBJID": "01-718-1250",
    "SITEID": "718",
    "TRT01P": "Xanomeline Low Dose",
    "TRT01A": "Xanomeline Low Dose",
    "TRT01PN": 1,
    "TRTP": "Xanomeline Low Dose",
    "TRTA": "Xanomeline Low Dose",
    "TRTSDT": "2013-09-21",
    "TRTEDT": "2014-01-31",
    "SAFFL": "Y",
    "ITTFL": "Y",
    "PARAMCD": "AVGDD",
    "PARAM": "Average Daily Dose (mg)",
    "PARAMN": 1,
    "AVAL": 54,
    "AVISIT": "End of Study",
    "AVISITN": 99
  },
  {
    "STUDYID": "CDISCPILOT01",
    "USUBJID": "01-718-1254",
    "SITEID": "718",
    "TRT01P": "Xanomeline Low Dose",
    "TRT01A": "Xanomeline Low Dose",
    "TRT01PN": 1,
    "TRTP": "Xanomeline Low Dose",
    "TRTA": "Xanomeline Low Dose",
    "TRTSDT": "2013-07-10",
    "TRTEDT": "2014-01-09",
    "SAFFL": "Y",
    "ITTFL": "Y",
    "PARAMCD": "AVGDD",
    "PARAM": "Average Daily Dose (mg)",
    "PARAMN": 1,
    "AVAL": 54,
    "AVISIT": "End of Study",
    "AVISITN": 99
  },
  {
    "STUDYID": "CDISCPILOT01",
    "USUBJID": "01-718-1328",
    "SITEID": "718",
    "TRT01P": "Xanomeline High Dose",
    "TRT01A": "Xanomeline High Dose",
    "TRT01PN": 2,
    "TRTP": "Xanomeline High Dose",
    "TRTA": "Xanomeline High Dose",
    "TRTSDT": "2013-02-01",
    "TRTEDT": "2013-04-18",
    "SAFFL": "Y",
    "ITTFL": "Y",
    "PARAMCD": "AVGDD",
    "PARAM": "Average Daily Dose (mg)",
    "PARAMN": 1,
    "AVAL": 76.1,
    "AVISIT": "End of Study",
    "AVISITN": 99
  },
  {
    "STUDYID": "CDISCPILOT01",
    "USUBJID": "01-718-1355",
    "SITEID": "718",
    "TRT01P": "Placebo",
    "TRT01A": "Placebo",
    "TRT01PN": 0,
    "TRTP": "Placebo",
    "TRTA": "Placebo",
    "TRTSDT": "2013-02-28",
    "TRTEDT": "2013-08-29",
    "SAFFL": "Y",
    "ITTFL": "Y",
    "PARAMCD": "AVGDD",
    "PARAM": "Average Daily Dose (mg)",
    "PARAMN": 1,
    "AVAL": 0,
    "AVISIT": "End of Study",
    "AVISITN": 99
  },
  {
    "STUDYID": "CDISCPILOT01",
    "USUBJID": "01-718-1371",
    "SITEID": "718",
    "TRT01P": "Xanomeline High Dose",
    "TRT01A": "Xanomeline High Dose",
    "TRT01PN": 2,
    "TRTP": "Xanomeline High Dose",
    "TRTA": "Xanomeline High Dose",
    "TRTSDT": "2013-04-26",
    "TRTEDT": "2013-08-01",
    "SAFFL": "Y",
    "ITTFL": "Y",
    "PARAMCD": "AVGDD",
    "PARAM": "Average Daily Dose (mg)",
    "PARAMN": 1,
    "AVAL": 77.4,
    "AVISIT": "End of Study",
    "AVISITN": 99
  },
  {
    "STUDYID": "CDISCPILOT01",
    "USUBJID": "01-718-1427",
    "SITEID": "718",
    "TRT01P": "Xanomeline High Dose",
    "TRT01A": "Xanomeline High Dose",
    "TRT01PN": 2,
    "TRTP": "Xanomeline High Dose",
    "TRTA": "Xanomeline High Dose",
    "TRTSDT": "2012-12-17",
    "TRTEDT": "2013-02-11",
    "SAFFL": "Y",
    "ITTFL": "Y",
    "PARAMCD": "AVGDD",
    "PARAM": "Average Daily Dose (mg)",
    "PARAMN": 1,
    "AVAL": 73.9,
    "AVISIT": "End of Study",
    "AVISITN": 99
  },
  {
    "STUDYID": "CDISCPILOT01",
    "USUBJID": "01-701-1015",
    "SITEID": "701",
    "TRT01P": "Placebo",
    "TRT01A": "Placebo",
    "TRT01PN": 0,
    "TRTP": "Placebo",
    "TRTA": "Placebo",
    "TRTSDT": "2014-01-02",
    "TRTEDT": "2014-07-02",
    "SAFFL": "Y",
    "ITTFL": "Y",
    "PARAMCD": "CUMD",
    "PARAM": "Cumulative Dose (mg)",
    "PARAMN": 2,
    "AVAL": 0,
    "AVISIT": "End of Study",
    "AVISITN": 99
  },
  {
    "STUDYID": "CDISCPILOT01",
    "USUBJID": "01-701-1023",
    "SITEID": "701",
    "TRT01P": "Placebo",
    "TRT01A": "Placebo",
    "TRT01PN": 0,
    "TRTP": "Placebo",
    "TRTA": "Placebo",
    "TRTSDT": "2012-08-05",
    "TRTEDT": "2012-09-01",
    "SAFFL": "Y",
    "ITTFL": "Y",
    "PARAMCD": "CUMD",
    "PARAM": "Cumulative Dose (mg)",
    "PARAMN": 2,
    "AVAL": 0,
    "AVISIT": "End of Study",
    "AVISITN": 99
  },
  {
    "STUDYID": "CDISCPILOT01",
    "USUBJID": "01-701-1028",
    "SITEID": "701",
    "TRT01P": "Xanomeline High Dose",
    "TRT01A": "Xanomeline High Dose",
    "TRT01PN": 2,
    "TRTP": "Xanomeline High Dose",
    "TRTA": "Xanomeline High Dose",
    "TRTSDT": "2013-07-19",
    "TRTEDT": "2014-01-14",
    "SAFFL": "Y",
    "ITTFL": "Y",
    "PARAMCD": "CUMD",
    "PARAM": "Cumulative Dose (mg)",
    "PARAMN": 2,
    "AVAL": 13986,
    "AVISIT": "End of Study",
    "AVISITN": 99
  },
  {
    "STUDYID": "CDISCPILOT01",
    "USUBJID": "01-701-1033",
    "SITEID": "701",
    "TRT01P": "Xanomeline Low Dose",
    "TRT01A": "Xanomeline Low Dose",
    "TRT01PN": 1,
    "TRTP": "Xanomeline Low Dose",
    "TRTA": "Xanomeline Low Dose",
    "TRTSDT": "2014-03-18",
    "TRTEDT": "2014-03-31",
    "SAFFL": "Y",
    "ITTFL": "Y",
    "PARAMCD": "CUMD",
    "PARAM": "Cumulative Dose (mg)",
    "PARAMN": 2,
    "AVAL": 756,
    "AVISIT": "End of Study",
    "AVISITN": 99
  },
  {
    "STUDYID": "CDISCPILOT01",
    "USUBJID": "01-701-1034",
    "SITEID": "701",
    "TRT01P": "Xanomeline High Dose",
    "TRT01A": "Xanomeline High Dose",
    "TRT01PN": 2,
    "TRTP": "Xanomeline High Dose",
    "TRTA": "Xanomeline High Dose",
    "TRTSDT": "2014-07-01",
    "TRTEDT": "2014-12-30",
    "SAFFL": "Y",
    "ITTFL": "Y",
    "PARAMCD": "CUMD",
    "PARAM": "Cumulative Dose (mg)",
    "PARAMN": 2,
    "AVAL": 14067,
    "AVISIT": "End of Study",
    "AVISITN": 99
  },
  {
    "STUDYID": "CDISCPILOT01",
    "USUBJID": "01-701-1047",
    "SITEID": "701",
    "TRT01P": "Placebo",
    "TRT01A": "Placebo",
    "TRT01PN": 0,
    "TRTP": "Placebo",
    "TRTA": "Placebo",
    "TRTSDT": "2013-02-12",
    "TRTEDT": "2013-03-09",
    "SAFFL": "Y",
    "ITTFL": "Y",
    "PARAMCD": "CUMD",
    "PARAM": "Cumulative Dose (mg)",
    "PARAMN": 2,
    "AVAL": 0,
    "AVISIT": "End of Study",
    "AVISITN": 99
  },
  {
    "STUDYID": "CDISCPILOT01",
    "USUBJID": "01-701-1097",
    "SITEID": "701",
    "TRT01P": "Xanomeline Low Dose",
    "TRT01A": "Xanomeline Low Dose",
    "TRT01PN": 1,
    "TRTP": "Xanomeline Low Dose",
    "TRTA": "Xanomeline Low Dose",
    "TRTSDT": "2014-01-01",
    "TRTEDT": "2014-07-09",
    "SAFFL": "Y",
    "ITTFL": "Y",
    "PARAMCD": "CUMD",
    "PARAM": "Cumulative Dose (mg)",
    "PARAMN": 2,
    "AVAL": 10260,
    "AVISIT": "End of Study",
    "AVISITN": 99
  },
  {
    "STUDYID": "CDISCPILOT01",
    "USUBJID": "01-701-1111",
    "SITEID": "701",
    "TRT01P": "Xanomeline Low Dose",
    "TRT01A": "Xanomeline Low Dose",
    "TRT01PN": 1,
    "TRTP": "Xanomeline Low Dose",
    "TRTA": "Xanomeline Low Dose",
    "TRTSDT": "2012-09-07",
    "TRTEDT": "2012-09-16",
    "SAFFL": "Y",
    "ITTFL": "Y",
    "PARAMCD": "CUMD",
    "PARAM": "Cumulative Dose (mg)",
    "PARAMN": 2,
    "AVAL": 540,
    "AVISIT": "End of Study",
    "AVISITN": 99
  },
  {
    "STUDYID": "CDISCPILOT01",
    "USUBJID": "01-701-1115",
    "SITEID": "701",
    "TRT01P": "Xanomeline Low Dose",
    "TRT01A": "Xanomeline Low Dose",
    "TRT01PN": 1,
    "TRTP": "Xanomeline Low Dose",
    "TRTA": "Xanomeline Low Dose",
    "TRTSDT": "2012-11-30",
    "TRTEDT": "2013-01-23",
    "SAFFL": "Y",
    "ITTFL": "Y",
    "PARAMCD": "CUMD",
    "PARAM": "Cumulative Dose (mg)",
    "PARAMN": 2,
    "AVAL": 2970,
    "AVISIT": "End of Study",
    "AVISITN": 99
  },
  {
    "STUDYID": "CDISCPILOT01",
    "USUBJID": "01-701-1118",
    "SITEID": "701",
    "TRT01P": "Placebo",
    "TRT01A": "Placebo",
    "TRT01PN": 0,
    "TRTP": "Placebo",
    "TRTA": "Placebo",
    "TRTSDT": "2014-03-12",
    "TRTEDT": "2014-09-09",
    "SAFFL": "Y",
    "ITTFL": "Y",
    "PARAMCD": "CUMD",
    "PARAM": "Cumulative Dose (mg)",
    "PARAMN": 2,
    "AVAL": 0,
    "AVISIT": "End of Study",
    "AVISITN": 99
  },
  {
    "STUDYID": "CDISCPILOT01",
    "USUBJID": "01-701-1130",
    "SITEID": "701",
    "TRT01P": "Placebo",
    "TRT01A": "Placebo",
    "TRT01PN": 0,
    "TRTP": "Placebo",
    "TRTA": "Placebo",
    "TRTSDT": "2014-02-15",
    "TRTEDT": "2014-08-16",
    "SAFFL": "Y",
    "ITTFL": "Y",
    "PARAMCD": "CUMD",
    "PARAM": "Cumulative Dose (mg)",
    "PARAMN": 2,
    "AVAL": 0,
    "AVISIT": "End of Study",
    "AVISITN": 99
  },
  {
    "STUDYID": "CDISCPILOT01",
    "USUBJID": "01-701-1133",
    "SITEID": "701",
    "TRT01P": "Xanomeline High Dose",
    "TRT01A": "Xanomeline High Dose",
    "TRT01PN": 2,
    "TRTP": "Xanomeline High Dose",
    "TRTA": "Xanomeline High Dose",
    "TRTSDT": "2012-10-28",
    "TRTEDT": "2013-04-28",
    "SAFFL": "Y",
    "ITTFL": "Y",
    "PARAMCD": "CUMD",
    "PARAM": "Cumulative Dose (mg)",
    "PARAMN": 2,
    "AVAL": 14121,
    "AVISIT": "End of Study",
    "AVISITN": 99
  },
  {
    "STUDYID": "CDISCPILOT01",
    "USUBJID": "01-701-1146",
    "SITEID": "701",
    "TRT01P": "Xanomeline High Dose",
    "TRT01A": "Xanomeline High Dose",
    "TRT01PN": 2,
    "TRTP": "Xanomeline High Dose",
    "TRTA": "Xanomeline High Dose",
    "TRTSDT": "2013-05-20",
    "TRTEDT": "2013-06-26",
    "SAFFL": "Y",
    "ITTFL": "Y",
    "PARAMCD": "CUMD",
    "PARAM": "Cumulative Dose (mg)",
    "PARAMN": 2,
    "AVAL": 2673,
    "AVISIT": "End of Study",
    "AVISITN": 99
  },
  {
    "STUDYID": "CDISCPILOT01",
    "USUBJID": "01-701-1148",
    "SITEID": "701",
    "TRT01P": "Xanomeline High Dose",
    "TRT01A": "Xanomeline High Dose",
    "TRT01PN": 2,
    "TRTP": "Xanomeline High Dose",
    "TRTA": "Xanomeline High Dose",
    "TRTSDT": "2013-08-23",
    "TRTEDT": "2014-02-20",
    "SAFFL": "Y",
    "ITTFL": "Y",
    "PARAMCD": "CUMD",
    "PARAM": "Cumulative Dose (mg)",
    "PARAMN": 2,
    "AVAL": 14040,
    "AVISIT": "End of Study",
    "AVISITN": 99
  },
  {
    "STUDYID": "CDISCPILOT01",
    "USUBJID": "01-701-1153",
    "SITEID": "701",
    "TRT01P": "Placebo",
    "TRT01A": "Placebo",
    "TRT01PN": 0,
    "TRTP": "Placebo",
    "TRTA": "Placebo",
    "TRTSDT": "2013-09-23",
    "TRTEDT": "2014-03-16",
    "SAFFL": "Y",
    "ITTFL": "Y",
    "PARAMCD": "CUMD",
    "PARAM": "Cumulative Dose (mg)",
    "PARAMN": 2,
    "AVAL": 0,
    "AVISIT": "End of Study",
    "AVISITN": 99
  },
  {
    "STUDYID": "CDISCPILOT01",
    "USUBJID": "01-701-1180",
    "SITEID": "701",
    "TRT01P": "Xanomeline High Dose",
    "TRT01A": "Xanomeline High Dose",
    "TRT01PN": 2,
    "TRTP": "Xanomeline High Dose",
    "TRTA": "Xanomeline High Dose",
    "TRTSDT": "2013-02-12",
    "TRTEDT": "2013-03-18",
    "SAFFL": "Y",
    "ITTFL": "Y",
    "PARAMCD": "CUMD",
    "PARAM": "Cumulative Dose (mg)",
    "PARAMN": 2,
    "AVAL": 2457,
    "AVISIT": "End of Study",
    "AVISITN": 99
  },
  {
    "STUDYID": "CDISCPILOT01",
    "USUBJID": "01-701-1181",
    "SITEID": "701",
    "TRT01P": "Xanomeline High Dose",
    "TRT01A": "Xanomeline Low Dose",
    "TRT01PN": 2,
    "TRTP": "Xanomeline High Dose",
    "TRTA": "Xanomeline Low Dose",
    "TRTSDT": "2013-12-05",
    "TRTEDT": "2013-12-09",
    "SAFFL": "Y",
    "ITTFL": "Y",
    "PARAMCD": "CUMD",
    "PARAM": "Cumulative Dose (mg)",
    "PARAMN": 2,
    "AVAL": 270,
    "AVISIT": "End of Study",
    "AVISITN": 99
  },
  {
    "STUDYID": "CDISCPILOT01",
    "USUBJID": "01-701-1188",
    "SITEID": "701",
    "TRT01P": "Xanomeline Low Dose",
    "TRT01A": "Xanomeline Low Dose",
    "TRT01PN": 1,
    "TRTP": "Xanomeline Low Dose",
    "TRTA": "Xanomeline Low Dose",
    "TRTSDT": "2013-02-15",
    "TRTEDT": "2013-03-24",
    "SAFFL": "Y",
    "ITTFL": "Y",
    "PARAMCD": "CUMD",
    "PARAM": "Cumulative Dose (mg)",
    "PARAMN": 2,
    "AVAL": 2052,
    "AVISIT": "End of Study",
    "AVISITN": 99
  },
  {
    "STUDYID": "CDISCPILOT01",
    "USUBJID": "01-701-1192",
    "SITEID": "701",
    "TRT01P": "Xanomeline Low Dose",
    "TRT01A": "Xanomeline Low Dose",
    "TRT01PN": 1,
    "TRTP": "Xanomeline Low Dose",
    "TRTA": "Xanomeline Low Dose",
    "TRTSDT": "2012-07-22",
    "TRTEDT": "2013-01-20",
    "SAFFL": "Y",
    "ITTFL": "Y",
    "PARAMCD": "CUMD",
    "PARAM": "Cumulative Dose (mg)",
    "PARAMN": 2,
    "AVAL": 9882,
    "AVISIT": "End of Study",
    "AVISITN": 99
  },
  {
    "STUDYID": "CDISCPILOT01",
    "USUBJID": "01-701-1203",
    "SITEID": "701",
    "TRT01P": "Placebo",
    "TRT01A": "Placebo",
    "TRT01PN": 0,
    "TRTP": "Placebo",
    "TRTA": "Placebo",
    "TRTSDT": "2013-02-02",
    "TRTEDT": "2013-08-03",
    "SAFFL": "Y",
    "ITTFL": "Y",
    "PARAMCD": "CUMD",
    "PARAM": "Cumulative Dose (mg)",
    "PARAMN": 2,
    "AVAL": 0,
    "AVISIT": "End of Study",
    "AVISITN": 99
  },
  {
    "STUDYID": "CDISCPILOT01",
    "USUBJID": "01-701-1211",
    "SITEID": "701",
    "TRT01P": "Xanomeline Low Dose",
    "TRT01A": "Xanomeline Low Dose",
    "TRT01PN": 1,
    "TRTP": "Xanomeline Low Dose",
    "TRTA": "Xanomeline Low Dose",
    "TRTSDT": "2012-11-15",
    "TRTEDT": "2013-01-12",
    "SAFFL": "Y",
    "ITTFL": "Y",
    "PARAMCD": "CUMD",
    "PARAM": "Cumulative Dose (mg)",
    "PARAMN": 2,
    "AVAL": 3186,
    "AVISIT": "End of Study",
    "AVISITN": 99
  },
  {
    "STUDYID": "CDISCPILOT01",
    "USUBJID": "01-701-1234",
    "SITEID": "701",
    "TRT01P": "Placebo",
    "TRT01A": "Placebo",
    "TRT01PN": 0,
    "TRTP": "Placebo",
    "TRTA": "Placebo",
    "TRTSDT": "2013-03-30",
    "TRTEDT": "2013-09-22",
    "SAFFL": "Y",
    "ITTFL": "Y",
    "PARAMCD": "CUMD",
    "PARAM": "Cumulative Dose (mg)",
    "PARAMN": 2,
    "AVAL": 0,
    "AVISIT": "End of Study",
    "AVISITN": 99
  },
  {
    "STUDYID": "CDISCPILOT01",
    "USUBJID": "01-701-1239",
    "SITEID": "701",
    "TRT01P": "Xanomeline High Dose",
    "TRT01A": "Xanomeline High Dose",
    "TRT01PN": 2,
    "TRTP": "Xanomeline High Dose",
    "TRTA": "Xanomeline High Dose",
    "TRTSDT": "2014-01-11",
    "TRTEDT": "2014-07-10",
    "SAFFL": "Y",
    "ITTFL": "Y",
    "PARAMCD": "CUMD",
    "PARAM": "Cumulative Dose (mg)",
    "PARAMN": 2,
    "AVAL": 13905,
    "AVISIT": "End of Study",
    "AVISITN": 99
  },
  {
    "STUDYID": "CDISCPILOT01",
    "USUBJID": "01-701-1275",
    "SITEID": "701",
    "TRT01P": "Xanomeline High Dose",
    "TRT01A": "Xanomeline High Dose",
    "TRT01PN": 2,
    "TRTP": "Xanomeline High Dose",
    "TRTA": "Xanomeline High Dose",
    "TRTSDT": "2014-02-07",
    "TRTEDT": "2014-05-31",
    "SAFFL": "Y",
    "ITTFL": "Y",
    "PARAMCD": "CUMD",
    "PARAM": "Cumulative Dose (mg)",
    "PARAMN": 2,
    "AVAL": 8802,
    "AVISIT": "End of Study",
    "AVISITN": 99
  },
  {
    "STUDYID": "CDISCPILOT01",
    "USUBJID": "01-701-1287",
    "SITEID": "701",
    "TRT01P": "Xanomeline High Dose",
    "TRT01A": "Xanomeline High Dose",
    "TRT01PN": 2,
    "TRTP": "Xanomeline High Dose",
    "TRTA": "Xanomeline High Dose",
    "TRTSDT": "2014-01-25",
    "TRTEDT": "2014-07-26",
    "SAFFL": "Y",
    "ITTFL": "Y",
    "PARAMCD": "CUMD",
    "PARAM": "Cumulative Dose (mg)",
    "PARAMN": 2,
    "AVAL": 13959,
    "AVISIT": "End of Study",
    "AVISITN": 99
  },
  {
    "STUDYID": "CDISCPILOT01",
    "USUBJID": "01-701-1294",
    "SITEID": "701",
    "TRT01P": "Xanomeline Low Dose",
    "TRT01A": "Xanomeline Low Dose",
    "TRT01PN": 1,
    "TRTP": "Xanomeline Low Dose",
    "TRTA": "Xanomeline Low Dose",
    "TRTSDT": "2013-03-24",
    "TRTEDT": "2013-06-14",
    "SAFFL": "Y",
    "ITTFL": "Y",
    "PARAMCD": "CUMD",
    "PARAM": "Cumulative Dose (mg)",
    "PARAMN": 2,
    "AVAL": 4482,
    "AVISIT": "End of Study",
    "AVISITN": 99
  },
  {
    "STUDYID": "CDISCPILOT01",
    "USUBJID": "01-701-1302",
    "SITEID": "701",
    "TRT01P": "Xanomeline High Dose",
    "TRT01A": "Xanomeline High Dose",
    "TRT01PN": 2,
    "TRTP": "Xanomeline High Dose",
    "TRTA": "Xanomeline High Dose",
    "TRTSDT": "2013-08-29",
    "TRTEDT": "2013-11-05",
    "SAFFL": "Y",
    "ITTFL": "Y",
    "PARAMCD": "CUMD",
    "PARAM": "Cumulative Dose (mg)",
    "PARAMN": 2,
    "AVAL": 5103,
    "AVISIT": "End of Study",
    "AVISITN": 99
  },
  {
    "STUDYID": "CDISCPILOT01",
    "USUBJID": "01-701-1317",
    "SITEID": "701",
    "TRT01P": "Xanomeline Low Dose",
    "TRT01A": "Xanomeline Low Dose",
    "TRT01PN": 1,
    "TRTP": "Xanomeline Low Dose",
    "TRTA": "Xanomeline Low Dose",
    "TRTSDT": "2014-05-22",
    "TRTEDT": "2014-11-20",
    "SAFFL": "Y",
    "ITTFL": "Y",
    "PARAMCD": "CUMD",
    "PARAM": "Cumulative Dose (mg)",
    "PARAMN": 2,
    "AVAL": 9882,
    "AVISIT": "End of Study",
    "AVISITN": 99
  },
  {
    "STUDYID": "CDISCPILOT01",
    "USUBJID": "01-701-1324",
    "SITEID": "701",
    "TRT01P": "Xanomeline Low Dose",
    "TRT01A": "Xanomeline Low Dose",
    "TRT01PN": 1,
    "TRTP": "Xanomeline Low Dose",
    "TRTA": "Xanomeline Low Dose",
    "TRTSDT": "2012-10-02",
    "TRTEDT": "2013-04-02",
    "SAFFL": "Y",
    "ITTFL": "Y",
    "PARAMCD": "CUMD",
    "PARAM": "Cumulative Dose (mg)",
    "PARAMN": 2,
    "AVAL": 9882,
    "AVISIT": "End of Study",
    "AVISITN": 99
  },
  {
    "STUDYID": "CDISCPILOT01",
    "USUBJID": "01-701-1341",
    "SITEID": "701",
    "TRT01P": "Xanomeline Low Dose",
    "TRT01A": "Xanomeline Low Dose",
    "TRT01PN": 1,
    "TRTP": "Xanomeline Low Dose",
    "TRTA": "Xanomeline Low Dose",
    "TRTSDT": "2013-01-05",
    "TRTEDT": "2013-01-26",
    "SAFFL": "Y",
    "ITTFL": "Y",
    "PARAMCD": "CUMD",
    "PARAM": "Cumulative Dose (mg)",
    "PARAMN": 2,
    "AVAL": 1188,
    "AVISIT": "End of Study",
    "AVISITN": 99
  },
  {
    "STUDYID": "CDISCPILOT01",
    "USUBJID": "01-701-1345",
    "SITEID": "701",
    "TRT01P": "Placebo",
    "TRT01A": "Placebo",
    "TRT01PN": 0,
    "TRTP": "Placebo",
    "TRTA": "Placebo",
    "TRTSDT": "2013-10-08",
    "TRTEDT": "2014-03-18",
    "SAFFL": "Y",
    "ITTFL": "Y",
    "PARAMCD": "CUMD",
    "PARAM": "Cumulative Dose (mg)",
    "PARAMN": 2,
    "AVAL": 0,
    "AVISIT": "End of Study",
    "AVISITN": 99
  },
  {
    "STUDYID": "CDISCPILOT01",
    "USUBJID": "01-701-1360",
    "SITEID": "701",
    "TRT01P": "Xanomeline High Dose",
    "TRT01A": "Xanomeline Low Dose",
    "TRT01PN": 2,
    "TRTP": "Xanomeline High Dose",
    "TRTA": "Xanomeline Low Dose",
    "TRTSDT": "2013-07-31",
    "TRTEDT": "2013-08-05",
    "SAFFL": "Y",
    "ITTFL": "Y",
    "PARAMCD": "CUMD",
    "PARAM": "Cumulative Dose (mg)",
    "PARAMN": 2,
    "AVAL": 324,
    "AVISIT": "End of Study",
    "AVISITN": 99
  },
  {
    "STUDYID": "CDISCPILOT01",
    "USUBJID": "01-701-1363",
    "SITEID": "701",
    "TRT01P": "Placebo",
    "TRT01A": "Placebo",
    "TRT01PN": 0,
    "TRTP": "Placebo",
    "TRTA": "Placebo",
    "TRTSDT": "2013-05-30",
    "TRTEDT": "2013-11-27",
    "SAFFL": "Y",
    "ITTFL": "Y",
    "PARAMCD": "CUMD",
    "PARAM": "Cumulative Dose (mg)",
    "PARAMN": 2,
    "AVAL": 0,
    "AVISIT": "End of Study",
    "AVISITN": 99
  },
  {
    "STUDYID": "CDISCPILOT01",
    "USUBJID": "01-701-1383",
    "SITEID": "701",
    "TRT01P": "Xanomeline High Dose",
    "TRT01A": "Xanomeline High Dose",
    "TRT01PN": 2,
    "TRTP": "Xanomeline High Dose",
    "TRTA": "Xanomeline High Dose",
    "TRTSDT": "2013-02-04",
    "TRTEDT": "2013-08-06",
    "SAFFL": "Y",
    "ITTFL": "Y",
    "PARAMCD": "CUMD",
    "PARAM": "Cumulative Dose (mg)",
    "PARAMN": 2,
    "AVAL": 14283,
    "AVISIT": "End of Study",
    "AVISITN": 99
  },
  {
    "STUDYID": "CDISCPILOT01",
    "USUBJID": "01-701-1387",
    "SITEID": "701",
    "TRT01P": "Placebo",
    "TRT01A": "Placebo",
    "TRT01PN": 0,
    "TRTP": "Placebo",
    "TRTA": "Placebo",
    "TRTSDT": "2014-03-12",
    "TRTEDT": "2014-03-25",
    "SAFFL": "Y",
    "ITTFL": "Y",
    "PARAMCD": "CUMD",
    "PARAM": "Cumulative Dose (mg)",
    "PARAMN": 2,
    "AVAL": 0,
    "AVISIT": "End of Study",
    "AVISITN": 99
  },
  {
    "STUDYID": "CDISCPILOT01",
    "USUBJID": "01-701-1392",
    "SITEID": "701",
    "TRT01P": "Placebo",
    "TRT01A": "Placebo",
    "TRT01PN": 0,
    "TRTP": "Placebo",
    "TRTA": "Placebo",
    "TRTSDT": "2012-10-28",
    "TRTEDT": "2013-04-28",
    "SAFFL": "Y",
    "ITTFL": "Y",
    "PARAMCD": "CUMD",
    "PARAM": "Cumulative Dose (mg)",
    "PARAMN": 2,
    "AVAL": 0,
    "AVISIT": "End of Study",
    "AVISITN": 99
  },
  {
    "STUDYID": "CDISCPILOT01",
    "USUBJID": "01-701-1415",
    "SITEID": "701",
    "TRT01P": "Placebo",
    "TRT01A": "Placebo",
    "TRT01PN": 0,
    "TRTP": "Placebo",
    "TRTA": "Placebo",
    "TRTSDT": "2013-09-23",
    "TRTEDT": "2014-03-24",
    "SAFFL": "Y",
    "ITTFL": "Y",
    "PARAMCD": "CUMD",
    "PARAM": "Cumulative Dose (mg)",
    "PARAMN": 2,
    "AVAL": 0,
    "AVISIT": "End of Study",
    "AVISITN": 99
  },
  {
    "STUDYID": "CDISCPILOT01",
    "USUBJID": "01-701-1429",
    "SITEID": "701",
    "TRT01P": "Xanomeline Low Dose",
    "TRT01A": "Xanomeline Low Dose",
    "TRT01PN": 1,
    "TRTP": "Xanomeline Low Dose",
    "TRTA": "Xanomeline Low Dose",
    "TRTSDT": "2013-03-19",
    "TRTEDT": "2013-04-30",
    "SAFFL": "Y",
    "ITTFL": "Y",
    "PARAMCD": "CUMD",
    "PARAM": "Cumulative Dose (mg)",
    "PARAMN": 2,
    "AVAL": 2322,
    "AVISIT": "End of Study",
    "AVISITN": 99
  },
  {
    "STUDYID": "CDISCPILOT01",
    "USUBJID": "01-701-1440",
    "SITEID": "701",
    "TRT01P": "Placebo",
    "TRT01A": "Placebo",
    "TRT01PN": 0,
    "TRTP": "Placebo",
    "TRTA": "Placebo",
    "TRTSDT": "2013-08-08",
    "TRTEDT": "2014-02-05",
    "SAFFL": "Y",
    "ITTFL": "Y",
    "PARAMCD": "CUMD",
    "PARAM": "Cumulative Dose (mg)",
    "PARAMN": 2,
    "AVAL": 0,
    "AVISIT": "End of Study",
    "AVISITN": 99
  },
  {
    "STUDYID": "CDISCPILOT01",
    "USUBJID": "01-701-1442",
    "SITEID": "701",
    "TRT01P": "Xanomeline Low Dose",
    "TRT01A": "Xanomeline Low Dose",
    "TRT01PN": 1,
    "TRTP": "Xanomeline Low Dose",
    "TRTA": "Xanomeline Low Dose",
    "TRTSDT": "2013-10-26",
    "TRTEDT": "2014-04-26",
    "SAFFL": "Y",
    "ITTFL": "Y",
    "PARAMCD": "CUMD",
    "PARAM": "Cumulative Dose (mg)",
    "PARAMN": 2,
    "AVAL": 9882,
    "AVISIT": "End of Study",
    "AVISITN": 99
  },
  {
    "STUDYID": "CDISCPILOT01",
    "USUBJID": "01-701-1444",
    "SITEID": "701",
    "TRT01P": "Xanomeline High Dose",
    "TRT01A": "Xanomeline High Dose",
    "TRT01PN": 2,
    "TRTP": "Xanomeline High Dose",
    "TRTA": "Xanomeline High Dose",
    "TRTSDT": "2013-01-05",
    "TRTEDT": "2013-02-12",
    "SAFFL": "Y",
    "ITTFL": "Y",
    "PARAMCD": "CUMD",
    "PARAM": "Cumulative Dose (mg)",
    "PARAMN": 2,
    "AVAL": 2781,
    "AVISIT": "End of Study",
    "AVISITN": 99
  },
  {
    "STUDYID": "CDISCPILOT01",
    "USUBJID": "01-702-1082",
    "SITEID": "702",
    "TRT01P": "Xanomeline Low Dose",
    "TRT01A": "Xanomeline Low Dose",
    "TRT01PN": 1,
    "TRTP": "Xanomeline Low Dose",
    "TRTA": "Xanomeline Low Dose",
    "TRTSDT": "2013-07-26",
    "TRTEDT": "2013-10-13",
    "SAFFL": "Y",
    "ITTFL": "Y",
    "PARAMCD": "CUMD",
    "PARAM": "Cumulative Dose (mg)",
    "PARAMN": 2,
    "AVAL": 4320,
    "AVISIT": "End of Study",
    "AVISITN": 99
  },
  {
    "STUDYID": "CDISCPILOT01",
    "USUBJID": "01-703-1042",
    "SITEID": "703",
    "TRT01P": "Placebo",
    "TRT01A": "Placebo",
    "TRT01PN": 0,
    "TRTP": "Placebo",
    "TRTA": "Placebo",
    "TRTSDT": "2013-03-02",
    "TRTEDT": "2013-08-31",
    "SAFFL": "Y",
    "ITTFL": "Y",
    "PARAMCD": "CUMD",
    "PARAM": "Cumulative Dose (mg)",
    "PARAMN": 2,
    "AVAL": 0,
    "AVISIT": "End of Study",
    "AVISITN": 99
  },
  {
    "STUDYID": "CDISCPILOT01",
    "USUBJID": "01-703-1076",
    "SITEID": "703",
    "TRT01P": "Xanomeline High Dose",
    "TRT01A": "Xanomeline High Dose",
    "TRT01PN": 2,
    "TRTP": "Xanomeline High Dose",
    "TRTA": "Xanomeline High Dose",
    "TRTSDT": "2013-10-25",
    "TRTEDT": "2013-12-24",
    "SAFFL": "Y",
    "ITTFL": "Y",
    "PARAMCD": "CUMD",
    "PARAM": "Cumulative Dose (mg)",
    "PARAMN": 2,
    "AVAL": 4590,
    "AVISIT": "End of Study",
    "AVISITN": 99
  },
  {
    "STUDYID": "CDISCPILOT01",
    "USUBJID": "01-703-1086",
    "SITEID": "703",
    "TRT01P": "Xanomeline Low Dose",
    "TRT01A": "Xanomeline Low Dose",
    "TRT01PN": 1,
    "TRTP": "Xanomeline Low Dose",
    "TRTA": "Xanomeline Low Dose",
    "TRTSDT": "2012-09-02",
    "TRTEDT": "2012-12-04",
    "SAFFL": "Y",
    "ITTFL": "Y",
    "PARAMCD": "CUMD",
    "PARAM": "Cumulative Dose (mg)",
    "PARAMN": 2,
    "AVAL": 5076,
    "AVISIT": "End of Study",
    "AVISITN": 99
  },
  {
    "STUDYID": "CDISCPILOT01",
    "USUBJID": "01-703-1096",
    "SITEID": "703",
    "TRT01P": "Placebo",
    "TRT01A": "Placebo",
    "TRT01PN": 0,
    "TRTP": "Placebo",
    "TRTA": "Placebo",
    "TRTSDT": "2013-01-25",
    "TRTEDT": "2013-03-16",
    "SAFFL": "Y",
    "ITTFL": "Y",
    "PARAMCD": "CUMD",
    "PARAM": "Cumulative Dose (mg)",
    "PARAMN": 2,
    "AVAL": 0,
    "AVISIT": "End of Study",
    "AVISITN": 99
  },
  {
    "STUDYID": "CDISCPILOT01",
    "USUBJID": "01-703-1100",
    "SITEID": "703",
    "TRT01P": "Placebo",
    "TRT01A": "Placebo",
    "TRT01PN": 0,
    "TRTP": "Placebo",
    "TRTA": "Placebo",
    "TRTSDT": "2013-03-13",
    "TRTEDT": "2013-09-14",
    "SAFFL": "Y",
    "ITTFL": "Y",
    "PARAMCD": "CUMD",
    "PARAM": "Cumulative Dose (mg)",
    "PARAMN": 2,
    "AVAL": 0,
    "AVISIT": "End of Study",
    "AVISITN": 99
  },
  {
    "STUDYID": "CDISCPILOT01",
    "USUBJID": "01-703-1119",
    "SITEID": "703",
    "TRT01P": "Xanomeline Low Dose",
    "TRT01A": "Xanomeline Low Dose",
    "TRT01PN": 1,
    "TRTP": "Xanomeline Low Dose",
    "TRTA": "Xanomeline Low Dose",
    "TRTSDT": "2013-02-20",
    "TRTEDT": "2013-06-13",
    "SAFFL": "Y",
    "ITTFL": "Y",
    "PARAMCD": "CUMD",
    "PARAM": "Cumulative Dose (mg)",
    "PARAMN": 2,
    "AVAL": 6156,
    "AVISIT": "End of Study",
    "AVISITN": 99
  },
  {
    "STUDYID": "CDISCPILOT01",
    "USUBJID": "01-703-1175",
    "SITEID": "703",
    "TRT01P": "Placebo",
    "TRT01A": "Placebo",
    "TRT01PN": 0,
    "TRTP": "Placebo",
    "TRTA": "Placebo",
    "TRTSDT": "2013-12-20",
    "TRTEDT": "2013-12-26",
    "SAFFL": "Y",
    "ITTFL": "Y",
    "PARAMCD": "CUMD",
    "PARAM": "Cumulative Dose (mg)",
    "PARAMN": 2,
    "AVAL": 0,
    "AVISIT": "End of Study",
    "AVISITN": 99
  },
  {
    "STUDYID": "CDISCPILOT01",
    "USUBJID": "01-703-1182",
    "SITEID": "703",
    "TRT01P": "Xanomeline Low Dose",
    "TRT01A": "Xanomeline Low Dose",
    "TRT01PN": 1,
    "TRTP": "Xanomeline Low Dose",
    "TRTA": "Xanomeline Low Dose",
    "TRTSDT": "2013-10-17",
    "TRTEDT": "2013-12-11",
    "SAFFL": "Y",
    "ITTFL": "Y",
    "PARAMCD": "CUMD",
    "PARAM": "Cumulative Dose (mg)",
    "PARAMN": 2,
    "AVAL": 3024,
    "AVISIT": "End of Study",
    "AVISITN": 99
  },
  {
    "STUDYID": "CDISCPILOT01",
    "USUBJID": "01-703-1197",
    "SITEID": "703",
    "TRT01P": "Xanomeline Low Dose",
    "TRT01A": "Xanomeline Low Dose",
    "TRT01PN": 1,
    "TRTP": "Xanomeline Low Dose",
    "TRTA": "Xanomeline Low Dose",
    "TRTSDT": "2013-06-16",
    "TRTEDT": "2013-06-29",
    "SAFFL": "Y",
    "ITTFL": "Y",
    "PARAMCD": "CUMD",
    "PARAM": "Cumulative Dose (mg)",
    "PARAMN": 2,
    "AVAL": 756,
    "AVISIT": "End of Study",
    "AVISITN": 99
  },
  {
    "STUDYID": "CDISCPILOT01",
    "USUBJID": "01-703-1210",
    "SITEID": "703",
    "TRT01P": "Placebo",
    "TRT01A": "Placebo",
    "TRT01PN": 0,
    "TRTP": "Placebo",
    "TRTA": "Placebo",
    "TRTSDT": "2013-03-16",
    "TRTEDT": "2013-09-06",
    "SAFFL": "Y",
    "ITTFL": "Y",
    "PARAMCD": "CUMD",
    "PARAM": "Cumulative Dose (mg)",
    "PARAMN": 2,
    "AVAL": 0,
    "AVISIT": "End of Study",
    "AVISITN": 99
  },
  {
    "STUDYID": "CDISCPILOT01",
    "USUBJID": "01-703-1258",
    "SITEID": "703",
    "TRT01P": "Xanomeline High Dose",
    "TRT01A": "Xanomeline High Dose",
    "TRT01PN": 2,
    "TRTP": "Xanomeline High Dose",
    "TRTA": "Xanomeline High Dose",
    "TRTSDT": "2012-07-20",
    "TRTEDT": "2013-01-11",
    "SAFFL": "Y",
    "ITTFL": "Y",
    "PARAMCD": "CUMD",
    "PARAM": "Cumulative Dose (mg)",
    "PARAMN": 2,
    "AVAL": 13608,
    "AVISIT": "End of Study",
    "AVISITN": 99
  },
  {
    "STUDYID": "CDISCPILOT01",
    "USUBJID": "01-703-1279",
    "SITEID": "703",
    "TRT01P": "Xanomeline Low Dose",
    "TRT01A": "Xanomeline Low Dose",
    "TRT01PN": 1,
    "TRTP": "Xanomeline Low Dose",
    "TRTA": "Xanomeline Low Dose",
    "TRTSDT": "2013-05-13",
    "TRTEDT": "2013-06-03",
    "SAFFL": "Y",
    "ITTFL": "Y",
    "PARAMCD": "CUMD",
    "PARAM": "Cumulative Dose (mg)",
    "PARAMN": 2,
    "AVAL": 1188,
    "AVISIT": "End of Study",
    "AVISITN": 99
  },
  {
    "STUDYID": "CDISCPILOT01",
    "USUBJID": "01-703-1295",
    "SITEID": "703",
    "TRT01P": "Xanomeline High Dose",
    "TRT01A": "Xanomeline High Dose",
    "TRT01PN": 2,
    "TRTP": "Xanomeline High Dose",
    "TRTA": "Xanomeline High Dose",
    "TRTSDT": "2013-11-21",
    "TRTEDT": "2014-04-19",
    "SAFFL": "Y",
    "ITTFL": "Y",
    "PARAMCD": "CUMD",
    "PARAM": "Cumulative Dose (mg)",
    "PARAMN": 2,
    "AVAL": 11745,
    "AVISIT": "End of Study",
    "AVISITN": 99
  },
  {
    "STUDYID": "CDISCPILOT01",
    "USUBJID": "01-703-1299",
    "SITEID": "703",
    "TRT01P": "Placebo",
    "TRT01A": "Placebo",
    "TRT01PN": 0,
    "TRTP": "Placebo",
    "TRTA": "Placebo",
    "TRTSDT": "2012-09-12",
    "TRTEDT": "2013-03-13",
    "SAFFL": "Y",
    "ITTFL": "Y",
    "PARAMCD": "CUMD",
    "PARAM": "Cumulative Dose (mg)",
    "PARAMN": 2,
    "AVAL": 0,
    "AVISIT": "End of Study",
    "AVISITN": 99
  },
  {
    "STUDYID": "CDISCPILOT01",
    "USUBJID": "01-703-1335",
    "SITEID": "703",
    "TRT01P": "Xanomeline High Dose",
    "TRT01A": "Xanomeline High Dose",
    "TRT01PN": 2,
    "TRTP": "Xanomeline High Dose",
    "TRTA": "Xanomeline High Dose",
    "TRTSDT": "2014-03-17",
    "TRTEDT": "2014-05-07",
    "SAFFL": "Y",
    "ITTFL": "Y",
    "PARAMCD": "CUMD",
    "PARAM": "Cumulative Dose (mg)",
    "PARAMN": 2,
    "AVAL": 3807,
    "AVISIT": "End of Study",
    "AVISITN": 99
  },
  {
    "STUDYID": "CDISCPILOT01",
    "USUBJID": "01-703-1379",
    "SITEID": "703",
    "TRT01P": "Xanomeline Low Dose",
    "TRT01A": "Xanomeline Low Dose",
    "TRT01PN": 1,
    "TRTP": "Xanomeline Low Dose",
    "TRTA": "Xanomeline Low Dose",
    "TRTSDT": "2013-09-22",
    "TRTEDT": "2014-03-21",
    "SAFFL": "Y",
    "ITTFL": "Y",
    "PARAMCD": "CUMD",
    "PARAM": "Cumulative Dose (mg)",
    "PARAMN": 2,
    "AVAL": 9774,
    "AVISIT": "End of Study",
    "AVISITN": 99
  },
  {
    "STUDYID": "CDISCPILOT01",
    "USUBJID": "01-703-1403",
    "SITEID": "703",
    "TRT01P": "Xanomeline High Dose",
    "TRT01A": "Xanomeline Low Dose",
    "TRT01PN": 2,
    "TRTP": "Xanomeline High Dose",
    "TRTA": "Xanomeline Low Dose",
    "TRTSDT": "2012-12-12",
    "TRTEDT": "2012-12-13",
    "SAFFL": "Y",
    "ITTFL": "Y",
    "PARAMCD": "CUMD",
    "PARAM": "Cumulative Dose (mg)",
    "PARAMN": 2,
    "AVAL": 108,
    "AVISIT": "End of Study",
    "AVISITN": 99
  },
  {
    "STUDYID": "CDISCPILOT01",
    "USUBJID": "01-703-1439",
    "SITEID": "703",
    "TRT01P": "Xanomeline High Dose",
    "TRT01A": "Xanomeline High Dose",
    "TRT01PN": 2,
    "TRTP": "Xanomeline High Dose",
    "TRTA": "Xanomeline High Dose",
    "TRTSDT": "2014-03-12",
    "TRTEDT": "2014-09-11",
    "SAFFL": "Y",
    "ITTFL": "Y",
    "PARAMCD": "CUMD",
    "PARAM": "Cumulative Dose (mg)",
    "PARAMN": 2,
    "AVAL": 14121,
    "AVISIT": "End of Study",
    "AVISITN": 99
  },
  {
    "STUDYID": "CDISCPILOT01",
    "USUBJID": "01-704-1008",
    "SITEID": "704",
    "TRT01P": "Xanomeline High Dose",
    "TRT01A": "Xanomeline High Dose",
    "TRT01PN": 2,
    "TRTP": "Xanomeline High Dose",
    "TRTA": "Xanomeline High Dose",
    "TRTSDT": "2013-01-13",
    "TRTEDT": "2013-02-21",
    "SAFFL": "Y",
    "ITTFL": "Y",
    "PARAMCD": "CUMD",
    "PARAM": "Cumulative Dose (mg)",
    "PARAMN": 2,
    "AVAL": 2808,
    "AVISIT": "End of Study",
    "AVISITN": 99
  },
  {
    "STUDYID": "CDISCPILOT01",
    "USUBJID": "01-704-1009",
    "SITEID": "704",
    "TRT01P": "Xanomeline Low Dose",
    "TRT01A": "Xanomeline Low Dose",
    "TRT01PN": 1,
    "TRTP": "Xanomeline Low Dose",
    "TRTA": "Xanomeline Low Dose",
    "TRTSDT": "2013-08-27",
    "TRTEDT": "2013-09-25",
    "SAFFL": "Y",
    "ITTFL": "Y",
    "PARAMCD": "CUMD",
    "PARAM": "Cumulative Dose (mg)",
    "PARAMN": 2,
    "AVAL": 1620,
    "AVISIT": "End of Study",
    "AVISITN": 99
  },
  {
    "STUDYID": "CDISCPILOT01",
    "USUBJID": "01-704-1010",
    "SITEID": "704",
    "TRT01P": "Placebo",
    "TRT01A": "Placebo",
    "TRT01PN": 0,
    "TRTP": "Placebo",
    "TRTA": "Placebo",
    "TRTSDT": "2014-02-21",
    "TRTEDT": "2014-07-08",
    "SAFFL": "Y",
    "ITTFL": "Y",
    "PARAMCD": "CUMD",
    "PARAM": "Cumulative Dose (mg)",
    "PARAMN": 2,
    "AVAL": 0,
    "AVISIT": "End of Study",
    "AVISITN": 99
  },
  {
    "STUDYID": "CDISCPILOT01",
    "USUBJID": "01-704-1017",
    "SITEID": "704",
    "TRT01P": "Xanomeline High Dose",
    "TRT01A": "Xanomeline High Dose",
    "TRT01PN": 2,
    "TRTP": "Xanomeline High Dose",
    "TRTA": "Xanomeline High Dose",
    "TRTSDT": "2013-10-06",
    "TRTEDT": "2013-11-18",
    "SAFFL": "Y",
    "ITTFL": "Y",
    "PARAMCD": "CUMD",
    "PARAM": "Cumulative Dose (mg)",
    "PARAMN": 2,
    "AVAL": 3186,
    "AVISIT": "End of Study",
    "AVISITN": 99
  },
  {
    "STUDYID": "CDISCPILOT01",
    "USUBJID": "01-704-1025",
    "SITEID": "704",
    "TRT01P": "Xanomeline Low Dose",
    "TRT01A": "Xanomeline Low Dose",
    "TRT01PN": 1,
    "TRTP": "Xanomeline Low Dose",
    "TRTA": "Xanomeline Low Dose",
    "TRTSDT": "2013-09-27",
    "TRTEDT": "2013-10-24",
    "SAFFL": "Y",
    "ITTFL": "Y",
    "PARAMCD": "CUMD",
    "PARAM": "Cumulative Dose (mg)",
    "PARAMN": 2,
    "AVAL": 1512,
    "AVISIT": "End of Study",
    "AVISITN": 99
  },
  {
    "STUDYID": "CDISCPILOT01",
    "USUBJID": "01-704-1065",
    "SITEID": "704",
    "TRT01P": "Xanomeline High Dose",
    "TRT01A": "Xanomeline High Dose",
    "TRT01PN": 2,
    "TRTP": "Xanomeline High Dose",
    "TRTA": "Xanomeline High Dose",
    "TRTSDT": "2013-10-24",
    "TRTEDT": "2013-12-22",
    "SAFFL": "Y",
    "ITTFL": "Y",
    "PARAMCD": "CUMD",
    "PARAM": "Cumulative Dose (mg)",
    "PARAMN": 2,
    "AVAL": 4455,
    "AVISIT": "End of Study",
    "AVISITN": 99
  },
  {
    "STUDYID": "CDISCPILOT01",
    "USUBJID": "01-704-1074",
    "SITEID": "704",
    "TRT01P": "Xanomeline High Dose",
    "TRT01A": "Xanomeline High Dose",
    "TRT01PN": 2,
    "TRTP": "Xanomeline High Dose",
    "TRTA": "Xanomeline High Dose",
    "TRTSDT": "2014-01-22",
    "TRTEDT": "2014-03-20",
    "SAFFL": "Y",
    "ITTFL": "Y",
    "PARAMCD": "CUMD",
    "PARAM": "Cumulative Dose (mg)",
    "PARAMN": 2,
    "AVAL": 4185,
    "AVISIT": "End of Study",
    "AVISITN": 99
  },
  {
    "STUDYID": "CDISCPILOT01",
    "USUBJID": "01-704-1093",
    "SITEID": "704",
    "TRT01P": "Xanomeline High Dose",
    "TRT01A": "Xanomeline High Dose",
    "TRT01PN": 2,
    "TRTP": "Xanomeline High Dose",
    "TRTA": "Xanomeline High Dose",
    "TRTSDT": "2013-03-15",
    "TRTEDT": "2013-06-17",
    "SAFFL": "Y",
    "ITTFL": "Y",
    "PARAMCD": "CUMD",
    "PARAM": "Cumulative Dose (mg)",
    "PARAMN": 2,
    "AVAL": 7263,
    "AVISIT": "End of Study",
    "AVISITN": 99
  },
  {
    "STUDYID": "CDISCPILOT01",
    "USUBJID": "01-704-1114",
    "SITEID": "704",
    "TRT01P": "Xanomeline Low Dose",
    "TRT01A": "Xanomeline Low Dose",
    "TRT01PN": 1,
    "TRTP": "Xanomeline Low Dose",
    "TRTA": "Xanomeline Low Dose",
    "TRTSDT": "2013-01-23",
    "TRTEDT": "2013-07-07",
    "SAFFL": "Y",
    "ITTFL": "Y",
    "PARAMCD": "CUMD",
    "PARAM": "Cumulative Dose (mg)",
    "PARAMN": 2,
    "AVAL": 8964,
    "AVISIT": "End of Study",
    "AVISITN": 99
  },
  {
    "STUDYID": "CDISCPILOT01",
    "USUBJID": "01-704-1120",
    "SITEID": "704",
    "TRT01P": "Xanomeline Low Dose",
    "TRT01A": "Xanomeline Low Dose",
    "TRT01PN": 1,
    "TRTP": "Xanomeline Low Dose",
    "TRTA": "Xanomeline Low Dose",
    "TRTSDT": "2013-12-02",
    "TRTEDT": "2014-02-01",
    "SAFFL": "Y",
    "ITTFL": "Y",
    "PARAMCD": "CUMD",
    "PARAM": "Cumulative Dose (mg)",
    "PARAMN": 2,
    "AVAL": 3348,
    "AVISIT": "End of Study",
    "AVISITN": 99
  },
  {
    "STUDYID": "CDISCPILOT01",
    "USUBJID": "01-704-1127",
    "SITEID": "704",
    "TRT01P": "Placebo",
    "TRT01A": "Placebo",
    "TRT01PN": 0,
    "TRTP": "Placebo",
    "TRTA": "Placebo",
    "TRTSDT": "2013-10-02",
    "TRTEDT": "2014-03-31",
    "SAFFL": "Y",
    "ITTFL": "Y",
    "PARAMCD": "CUMD",
    "PARAM": "Cumulative Dose (mg)",
    "PARAMN": 2,
    "AVAL": 0,
    "AVISIT": "End of Study",
    "AVISITN": 99
  },
  {
    "STUDYID": "CDISCPILOT01",
    "USUBJID": "01-704-1135",
    "SITEID": "704",
    "TRT01P": "Xanomeline Low Dose",
    "TRT01A": "Xanomeline Low Dose",
    "TRT01PN": 1,
    "TRTP": "Xanomeline Low Dose",
    "TRTA": "Xanomeline Low Dose",
    "TRTSDT": "2013-10-31",
    "TRTEDT": "2014-05-16",
    "SAFFL": "Y",
    "ITTFL": "Y",
    "PARAMCD": "CUMD",
    "PARAM": "Cumulative Dose (mg)",
    "PARAMN": 2,
    "AVAL": 10692,
    "AVISIT": "End of Study",
    "AVISITN": 99
  },
  {
    "STUDYID": "CDISCPILOT01",
    "USUBJID": "01-704-1164",
    "SITEID": "704",
    "TRT01P": "Placebo",
    "TRT01A": "Placebo",
    "TRT01PN": 0,
    "TRTP": "Placebo",
    "TRTA": "Placebo",
    "TRTSDT": "2012-09-19",
    "TRTEDT": "2013-04-04",
    "SAFFL": "Y",
    "ITTFL": "Y",
    "PARAMCD": "CUMD",
    "PARAM": "Cumulative Dose (mg)",
    "PARAMN": 2,
    "AVAL": 0,
    "AVISIT": "End of Study",
    "AVISITN": 99
  },
  {
    "STUDYID": "CDISCPILOT01",
    "USUBJID": "01-704-1218",
    "SITEID": "704",
    "TRT01P": "Xanomeline Low Dose",
    "TRT01A": "Xanomeline Low Dose",
    "TRT01PN": 1,
    "TRTP": "Xanomeline Low Dose",
    "TRTA": "Xanomeline Low Dose",
    "TRTSDT": "2012-11-19",
    "TRTEDT": "2013-05-27",
    "SAFFL": "Y",
    "ITTFL": "Y",
    "PARAMCD": "CUMD",
    "PARAM": "Cumulative Dose (mg)",
    "PARAMN": 2,
    "AVAL": 10260,
    "AVISIT": "End of Study",
    "AVISITN": 99
  },
  {
    "STUDYID": "CDISCPILOT01",
    "USUBJID": "01-704-1233",
    "SITEID": "704",
    "TRT01P": "Placebo",
    "TRT01A": "Placebo",
    "TRT01PN": 0,
    "TRTP": "Placebo",
    "TRTA": "Placebo",
    "TRTSDT": "2013-03-21",
    "TRTEDT": "2013-04-04",
    "SAFFL": "Y",
    "ITTFL": "Y",
    "PARAMCD": "CUMD",
    "PARAM": "Cumulative Dose (mg)",
    "PARAMN": 2,
    "AVAL": 0,
    "AVISIT": "End of Study",
    "AVISITN": 99
  },
  {
    "STUDYID": "CDISCPILOT01",
    "USUBJID": "01-704-1241",
    "SITEID": "704",
    "TRT01P": "Xanomeline High Dose",
    "TRT01A": "Xanomeline High Dose",
    "TRT01PN": 2,
    "TRTP": "Xanomeline High Dose",
    "TRTA": "Xanomeline High Dose",
    "TRTSDT": "2013-08-25",
    "TRTEDT": "2013-10-09",
    "SAFFL": "Y",
    "ITTFL": "Y",
    "PARAMCD": "CUMD",
    "PARAM": "Cumulative Dose (mg)",
    "PARAMN": 2,
    "AVAL": 3402,
    "AVISIT": "End of Study",
    "AVISITN": 99
  },
  {
    "STUDYID": "CDISCPILOT01",
    "USUBJID": "01-704-1260",
    "SITEID": "704",
    "TRT01P": "Placebo",
    "TRT01A": "Placebo",
    "TRT01PN": 0,
    "TRTP": "Placebo",
    "TRTA": "Placebo",
    "TRTSDT": "2012-08-30",
    "TRTEDT": "2012-11-04",
    "SAFFL": "Y",
    "ITTFL": "Y",
    "PARAMCD": "CUMD",
    "PARAM": "Cumulative Dose (mg)",
    "PARAMN": 2,
    "AVAL": 0,
    "AVISIT": "End of Study",
    "AVISITN": 99
  },
  {
    "STUDYID": "CDISCPILOT01",
    "USUBJID": "01-704-1266",
    "SITEID": "704",
    "TRT01P": "Xanomeline High Dose",
    "TRT01A": "Xanomeline High Dose",
    "TRT01PN": 2,
    "TRTP": "Xanomeline High Dose",
    "TRTA": "Xanomeline High Dose",
    "TRTSDT": "2013-10-13",
    "TRTEDT": "2013-12-06",
    "SAFFL": "Y",
    "ITTFL": "Y",
    "PARAMCD": "CUMD",
    "PARAM": "Cumulative Dose (mg)",
    "PARAMN": 2,
    "AVAL": 4050,
    "AVISIT": "End of Study",
    "AVISITN": 99
  },
  {
    "STUDYID": "CDISCPILOT01",
    "USUBJID": "01-704-1323",
    "SITEID": "704",
    "TRT01P": "Xanomeline Low Dose",
    "TRT01A": "Xanomeline Low Dose",
    "TRT01PN": 1,
    "TRTP": "Xanomeline Low Dose",
    "TRTA": "Xanomeline Low Dose",
    "TRTSDT": "2013-07-08",
    "TRTEDT": "2013-08-05",
    "SAFFL": "Y",
    "ITTFL": "Y",
    "PARAMCD": "CUMD",
    "PARAM": "Cumulative Dose (mg)",
    "PARAMN": 2,
    "AVAL": 1566,
    "AVISIT": "End of Study",
    "AVISITN": 99
  },
  {
    "STUDYID": "CDISCPILOT01",
    "USUBJID": "01-704-1325",
    "SITEID": "704",
    "TRT01P": "Xanomeline Low Dose",
    "TRT01A": "Xanomeline Low Dose",
    "TRT01PN": 1,
    "TRTP": "Xanomeline Low Dose",
    "TRTA": "Xanomeline Low Dose",
    "TRTSDT": "2014-04-23",
    "TRTEDT": "2014-07-04",
    "SAFFL": "Y",
    "ITTFL": "Y",
    "PARAMCD": "CUMD",
    "PARAM": "Cumulative Dose (mg)",
    "PARAMN": 2,
    "AVAL": 3942,
    "AVISIT": "End of Study",
    "AVISITN": 99
  },
  {
    "STUDYID": "CDISCPILOT01",
    "USUBJID": "01-704-1332",
    "SITEID": "704",
    "TRT01P": "Xanomeline High Dose",
    "TRT01A": "Xanomeline High Dose",
    "TRT01PN": 2,
    "TRTP": "Xanomeline High Dose",
    "TRTA": "Xanomeline High Dose",
    "TRTSDT": "2013-12-09",
    "TRTEDT": "2014-02-14",
    "SAFFL": "Y",
    "ITTFL": "Y",
    "PARAMCD": "CUMD",
    "PARAM": "Cumulative Dose (mg)",
    "PARAMN": 2,
    "AVAL": 5103,
    "AVISIT": "End of Study",
    "AVISITN": 99
  },
  {
    "STUDYID": "CDISCPILOT01",
    "USUBJID": "01-704-1351",
    "SITEID": "704",
    "TRT01P": "Placebo",
    "TRT01A": "Placebo",
    "TRT01PN": 0,
    "TRTP": "Placebo",
    "TRTA": "Placebo",
    "TRTSDT": "2013-10-12",
    "TRTEDT": "2014-04-18",
    "SAFFL": "Y",
    "ITTFL": "Y",
    "PARAMCD": "CUMD",
    "PARAM": "Cumulative Dose (mg)",
    "PARAMN": 2,
    "AVAL": 0,
    "AVISIT": "End of Study",
    "AVISITN": 99
  },
  {
    "STUDYID": "CDISCPILOT01",
    "USUBJID": "01-704-1388",
    "SITEID": "704",
    "TRT01P": "Placebo",
    "TRT01A": "Placebo",
    "TRT01PN": 0,
    "TRTP": "Placebo",
    "TRTA": "Placebo",
    "TRTSDT": "2012-12-07",
    "TRTEDT": "2013-06-11",
    "SAFFL": "Y",
    "ITTFL": "Y",
    "PARAMCD": "CUMD",
    "PARAM": "Cumulative Dose (mg)",
    "PARAMN": 2,
    "AVAL": 0,
    "AVISIT": "End of Study",
    "AVISITN": 99
  },
  {
    "STUDYID": "CDISCPILOT01",
    "USUBJID": "01-704-1435",
    "SITEID": "704",
    "TRT01P": "Placebo",
    "TRT01A": "Placebo",
    "TRT01PN": 0,
    "TRTP": "Placebo",
    "TRTA": "Placebo",
    "TRTSDT": "2012-11-17",
    "TRTEDT": "2013-01-09",
    "SAFFL": "Y",
    "ITTFL": "Y",
    "PARAMCD": "CUMD",
    "PARAM": "Cumulative Dose (mg)",
    "PARAMN": 2,
    "AVAL": 0,
    "AVISIT": "End of Study",
    "AVISITN": 99
  },
  {
    "STUDYID": "CDISCPILOT01",
    "USUBJID": "01-704-1445",
    "SITEID": "704",
    "TRT01P": "Placebo",
    "TRT01A": "Placebo",
    "TRT01PN": 0,
    "TRTP": "Placebo",
    "TRTA": "Placebo",
    "TRTSDT": "2014-05-11",
    "TRTEDT": "2014-11-01",
    "SAFFL": "Y",
    "ITTFL": "Y",
    "PARAMCD": "CUMD",
    "PARAM": "Cumulative Dose (mg)",
    "PARAMN": 2,
    "AVAL": 0,
    "AVISIT": "End of Study",
    "AVISITN": 99
  },
  {
    "STUDYID": "CDISCPILOT01",
    "USUBJID": "01-705-1018",
    "SITEID": "705",
    "TRT01P": "Placebo",
    "TRT01A": "Placebo",
    "TRT01PN": 0,
    "TRTP": "Placebo",
    "TRTA": "Placebo",
    "TRTSDT": "2013-07-05",
    "TRTEDT": null,
    "SAFFL": "Y",
    "ITTFL": "Y",
    "PARAMCD": "CUMD",
    "PARAM": "Cumulative Dose (mg)",
    "PARAMN": 2,
    "AVAL": 0,
    "AVISIT": "End of Study",
    "AVISITN": 99
  },
  {
    "STUDYID": "CDISCPILOT01",
    "USUBJID": "01-705-1031",
    "SITEID": "705",
    "TRT01P": "Xanomeline Low Dose",
    "TRT01A": "Xanomeline Low Dose",
    "TRT01PN": 1,
    "TRTP": "Xanomeline Low Dose",
    "TRTA": "Xanomeline Low Dose",
    "TRTSDT": "2013-11-27",
    "TRTEDT": "2013-12-18",
    "SAFFL": "Y",
    "ITTFL": "Y",
    "PARAMCD": "CUMD",
    "PARAM": "Cumulative Dose (mg)",
    "PARAMN": 2,
    "AVAL": 1188,
    "AVISIT": "End of Study",
    "AVISITN": 99
  },
  {
    "STUDYID": "CDISCPILOT01",
    "USUBJID": "01-705-1059",
    "SITEID": "705",
    "TRT01P": "Placebo",
    "TRT01A": "Placebo",
    "TRT01PN": 0,
    "TRTP": "Placebo",
    "TRTA": "Placebo",
    "TRTSDT": "2013-08-05",
    "TRTEDT": "2013-12-05",
    "SAFFL": "Y",
    "ITTFL": "Y",
    "PARAMCD": "CUMD",
    "PARAM": "Cumulative Dose (mg)",
    "PARAMN": 2,
    "AVAL": 0,
    "AVISIT": "End of Study",
    "AVISITN": 99
  },
  {
    "STUDYID": "CDISCPILOT01",
    "USUBJID": "01-705-1186",
    "SITEID": "705",
    "TRT01P": "Placebo",
    "TRT01A": "Placebo",
    "TRT01PN": 0,
    "TRTP": "Placebo",
    "TRTA": "Placebo",
    "TRTSDT": "2014-01-08",
    "TRTEDT": "2014-01-26",
    "SAFFL": "Y",
    "ITTFL": "Y",
    "PARAMCD": "CUMD",
    "PARAM": "Cumulative Dose (mg)",
    "PARAMN": 2,
    "AVAL": 0,
    "AVISIT": "End of Study",
    "AVISITN": 99
  },
  {
    "STUDYID": "CDISCPILOT01",
    "USUBJID": "01-705-1199",
    "SITEID": "705",
    "TRT01P": "Xanomeline Low Dose",
    "TRT01A": "Xanomeline Low Dose",
    "TRT01PN": 1,
    "TRTP": "Xanomeline Low Dose",
    "TRTA": "Xanomeline Low Dose",
    "TRTSDT": "2013-09-16",
    "TRTEDT": "2013-09-28",
    "SAFFL": "Y",
    "ITTFL": "Y",
    "PARAMCD": "CUMD",
    "PARAM": "Cumulative Dose (mg)",
    "PARAMN": 2,
    "AVAL": 702,
    "AVISIT": "End of Study",
    "AVISITN": 99
  },
  {
    "STUDYID": "CDISCPILOT01",
    "USUBJID": "01-705-1280",
    "SITEID": "705",
    "TRT01P": "Xanomeline High Dose",
    "TRT01A": "Xanomeline High Dose",
    "TRT01PN": 2,
    "TRTP": "Xanomeline High Dose",
    "TRTA": "Xanomeline High Dose",
    "TRTSDT": "2014-01-17",
    "TRTEDT": "2014-07-25",
    "SAFFL": "Y",
    "ITTFL": "Y",
    "PARAMCD": "CUMD",
    "PARAM": "Cumulative Dose (mg)",
    "PARAMN": 2,
    "AVAL": 14607,
    "AVISIT": "End of Study",
    "AVISITN": 99
  },
  {
    "STUDYID": "CDISCPILOT01",
    "USUBJID": "01-705-1281",
    "SITEID": "705",
    "TRT01P": "Xanomeline High Dose",
    "TRT01A": "Xanomeline High Dose",
    "TRT01PN": 2,
    "TRTP": "Xanomeline High Dose",
    "TRTA": "Xanomeline High Dose",
    "TRTSDT": "2013-11-28",
    "TRTEDT": "2014-02-27",
    "SAFFL": "Y",
    "ITTFL": "Y",
    "PARAMCD": "CUMD",
    "PARAM": "Cumulative Dose (mg)",
    "PARAMN": 2,
    "AVAL": 6966,
    "AVISIT": "End of Study",
    "AVISITN": 99
  },
  {
    "STUDYID": "CDISCPILOT01",
    "USUBJID": "01-705-1282",
    "SITEID": "705",
    "TRT01P": "Placebo",
    "TRT01A": "Placebo",
    "TRT01PN": 0,
    "TRTP": "Placebo",
    "TRTA": "Placebo",
    "TRTSDT": "2012-12-26",
    "TRTEDT": "2013-06-24",
    "SAFFL": "Y",
    "ITTFL": "Y",
    "PARAMCD": "CUMD",
    "PARAM": "Cumulative Dose (mg)",
    "PARAMN": 2,
    "AVAL": 0,
    "AVISIT": "End of Study",
    "AVISITN": 99
  },
  {
    "STUDYID": "CDISCPILOT01",
    "USUBJID": "01-705-1292",
    "SITEID": "705",
    "TRT01P": "Xanomeline Low Dose",
    "TRT01A": "Xanomeline Low Dose",
    "TRT01PN": 1,
    "TRTP": "Xanomeline Low Dose",
    "TRTA": "Xanomeline Low Dose",
    "TRTSDT": "2013-10-14",
    "TRTEDT": "2014-05-13",
    "SAFFL": "Y",
    "ITTFL": "Y",
    "PARAMCD": "CUMD",
    "PARAM": "Cumulative Dose (mg)",
    "PARAMN": 2,
    "AVAL": 11448,
    "AVISIT": "End of Study",
    "AVISITN": 99
  },
  {
    "STUDYID": "CDISCPILOT01",
    "USUBJID": "01-705-1303",
    "SITEID": "705",
    "TRT01P": "Xanomeline High Dose",
    "TRT01A": "Xanomeline High Dose",
    "TRT01PN": 2,
    "TRTP": "Xanomeline High Dose",
    "TRTA": "Xanomeline High Dose",
    "TRTSDT": "2013-12-16",
    "TRTEDT": "2013-12-30",
    "SAFFL": "Y",
    "ITTFL": "Y",
    "PARAMCD": "CUMD",
    "PARAM": "Cumulative Dose (mg)",
    "PARAMN": 2,
    "AVAL": 810,
    "AVISIT": "End of Study",
    "AVISITN": 99
  },
  {
    "STUDYID": "CDISCPILOT01",
    "USUBJID": "01-705-1310",
    "SITEID": "705",
    "TRT01P": "Xanomeline High Dose",
    "TRT01A": "Xanomeline High Dose",
    "TRT01PN": 2,
    "TRTP": "Xanomeline High Dose",
    "TRTA": "Xanomeline High Dose",
    "TRTSDT": "2013-11-02",
    "TRTEDT": "2014-01-23",
    "SAFFL": "Y",
    "ITTFL": "Y",
    "PARAMCD": "CUMD",
    "PARAM": "Cumulative Dose (mg)",
    "PARAMN": 2,
    "AVAL": 6156,
    "AVISIT": "End of Study",
    "AVISITN": 99
  },
  {
    "STUDYID": "CDISCPILOT01",
    "USUBJID": "01-705-1349",
    "SITEID": "705",
    "TRT01P": "Placebo",
    "TRT01A": "Placebo",
    "TRT01PN": 0,
    "TRTP": "Placebo",
    "TRTA": "Placebo",
    "TRTSDT": "2013-03-10",
    "TRTEDT": "2013-09-08",
    "SAFFL": "Y",
    "ITTFL": "Y",
    "PARAMCD": "CUMD",
    "PARAM": "Cumulative Dose (mg)",
    "PARAMN": 2,
    "AVAL": 0,
    "AVISIT": "End of Study",
    "AVISITN": 99
  },
  {
    "STUDYID": "CDISCPILOT01",
    "USUBJID": "01-705-1377",
    "SITEID": "705",
    "TRT01P": "Xanomeline High Dose",
    "TRT01A": "Xanomeline High Dose",
    "TRT01PN": 2,
    "TRTP": "Xanomeline High Dose",
    "TRTA": "Xanomeline High Dose",
    "TRTSDT": "2014-01-04",
    "TRTEDT": "2014-01-25",
    "SAFFL": "Y",
    "ITTFL": "Y",
    "PARAMCD": "CUMD",
    "PARAM": "Cumulative Dose (mg)",
    "PARAMN": 2,
    "AVAL": 1188,
    "AVISIT": "End of Study",
    "AVISITN": 99
  },
  {
    "STUDYID": "CDISCPILOT01",
    "USUBJID": "01-705-1382",
    "SITEID": "705",
    "TRT01P": "Xanomeline High Dose",
    "TRT01A": "Xanomeline Low Dose",
    "TRT01PN": 2,
    "TRTP": "Xanomeline High Dose",
    "TRTA": "Xanomeline Low Dose",
    "TRTSDT": "2013-05-13",
    "TRTEDT": null,
    "SAFFL": "Y",
    "ITTFL": "Y",
    "PARAMCD": "CUMD",
    "PARAM": "Cumulative Dose (mg)",
    "PARAMN": 2,
    "AVAL": 0,
    "AVISIT": "End of Study",
    "AVISITN": 99
  },
  {
    "STUDYID": "CDISCPILOT01",
    "USUBJID": "01-705-1393",
    "SITEID": "705",
    "TRT01P": "Xanomeline Low Dose",
    "TRT01A": "Xanomeline Low Dose",
    "TRT01PN": 1,
    "TRTP": "Xanomeline Low Dose",
    "TRTA": "Xanomeline Low Dose",
    "TRTSDT": "2012-09-07",
    "TRTEDT": "2013-02-01",
    "SAFFL": "Y",
    "ITTFL": "Y",
    "PARAMCD": "CUMD",
    "PARAM": "Cumulative Dose (mg)",
    "PARAMN": 2,
    "AVAL": 7992,
    "AVISIT": "End of Study",
    "AVISITN": 99
  },
  {
    "STUDYID": "CDISCPILOT01",
    "USUBJID": "01-705-1431",
    "SITEID": "705",
    "TRT01P": "Xanomeline Low Dose",
    "TRT01A": "Xanomeline Low Dose",
    "TRT01PN": 1,
    "TRTP": "Xanomeline Low Dose",
    "TRTA": "Xanomeline Low Dose",
    "TRTSDT": "2013-06-23",
    "TRTEDT": "2013-12-19",
    "SAFFL": "Y",
    "ITTFL": "Y",
    "PARAMCD": "CUMD",
    "PARAM": "Cumulative Dose (mg)",
    "PARAMN": 2,
    "AVAL": 9720,
    "AVISIT": "End of Study",
    "AVISITN": 99
  },
  {
    "STUDYID": "CDISCPILOT01",
    "USUBJID": "01-706-1041",
    "SITEID": "706",
    "TRT01P": "Placebo",
    "TRT01A": "Placebo",
    "TRT01PN": 0,
    "TRTP": "Placebo",
    "TRTA": "Placebo",
    "TRTSDT": "2013-12-31",
    "TRTEDT": "2014-07-28",
    "SAFFL": "Y",
    "ITTFL": "Y",
    "PARAMCD": "CUMD",
    "PARAM": "Cumulative Dose (mg)",
    "PARAMN": 2,
    "AVAL": 0,
    "AVISIT": "End of Study",
    "AVISITN": 99
  },
  {
    "STUDYID": "CDISCPILOT01",
    "USUBJID": "01-706-1049",
    "SITEID": "706",
    "TRT01P": "Xanomeline High Dose",
    "TRT01A": "Xanomeline High Dose",
    "TRT01PN": 2,
    "TRTP": "Xanomeline High Dose",
    "TRTA": "Xanomeline High Dose",
    "TRTSDT": "2013-05-14",
    "TRTEDT": "2013-06-18",
    "SAFFL": "Y",
    "ITTFL": "Y",
    "PARAMCD": "CUMD",
    "PARAM": "Cumulative Dose (mg)",
    "PARAMN": 2,
    "AVAL": 2511,
    "AVISIT": "End of Study",
    "AVISITN": 99
  },
  {
    "STUDYID": "CDISCPILOT01",
    "USUBJID": "01-706-1384",
    "SITEID": "706",
    "TRT01P": "Xanomeline Low Dose",
    "TRT01A": "Xanomeline Low Dose",
    "TRT01PN": 1,
    "TRTP": "Xanomeline Low Dose",
    "TRTA": "Xanomeline Low Dose",
    "TRTSDT": "2012-09-15",
    "TRTEDT": "2012-09-24",
    "SAFFL": "Y",
    "ITTFL": "Y",
    "PARAMCD": "CUMD",
    "PARAM": "Cumulative Dose (mg)",
    "PARAMN": 2,
    "AVAL": 540,
    "AVISIT": "End of Study",
    "AVISITN": 99
  },
  {
    "STUDYID": "CDISCPILOT01",
    "USUBJID": "01-707-1037",
    "SITEID": "707",
    "TRT01P": "Xanomeline Low Dose",
    "TRT01A": "Xanomeline Low Dose",
    "TRT01PN": 1,
    "TRTP": "Xanomeline Low Dose",
    "TRTA": "Xanomeline Low Dose",
    "TRTSDT": "2013-12-20",
    "TRTEDT": "2013-12-24",
    "SAFFL": "Y",
    "ITTFL": "Y",
    "PARAMCD": "CUMD",
    "PARAM": "Cumulative Dose (mg)",
    "PARAMN": 2,
    "AVAL": 270,
    "AVISIT": "End of Study",
    "AVISITN": 99
  },
  {
    "STUDYID": "CDISCPILOT01",
    "USUBJID": "01-707-1206",
    "SITEID": "707",
    "TRT01P": "Placebo",
    "TRT01A": "Placebo",
    "TRT01PN": 0,
    "TRTP": "Placebo",
    "TRTA": "Placebo",
    "TRTSDT": "2013-10-28",
    "TRTEDT": "2014-04-26",
    "SAFFL": "Y",
    "ITTFL": "Y",
    "PARAMCD": "CUMD",
    "PARAM": "Cumulative Dose (mg)",
    "PARAMN": 2,
    "AVAL": 0,
    "AVISIT": "End of Study",
    "AVISITN": 99
  },
  {
    "STUDYID": "CDISCPILOT01",
    "USUBJID": "01-708-1019",
    "SITEID": "708",
    "TRT01P": "Xanomeline Low Dose",
    "TRT01A": "Xanomeline Low Dose",
    "TRT01PN": 1,
    "TRTP": "Xanomeline Low Dose",
    "TRTA": "Xanomeline Low Dose",
    "TRTSDT": "2013-12-20",
    "TRTEDT": "2014-01-01",
    "SAFFL": "Y",
    "ITTFL": "Y",
    "PARAMCD": "CUMD",
    "PARAM": "Cumulative Dose (mg)",
    "PARAMN": 2,
    "AVAL": 702,
    "AVISIT": "End of Study",
    "AVISITN": 99
  },
  {
    "STUDYID": "CDISCPILOT01",
    "USUBJID": "01-708-1032",
    "SITEID": "708",
    "TRT01P": "Xanomeline Low Dose",
    "TRT01A": "Xanomeline Low Dose",
    "TRT01PN": 1,
    "TRTP": "Xanomeline Low Dose",
    "TRTA": "Xanomeline Low Dose",
    "TRTSDT": "2013-02-09",
    "TRTEDT": "2013-03-01",
    "SAFFL": "Y",
    "ITTFL": "Y",
    "PARAMCD": "CUMD",
    "PARAM": "Cumulative Dose (mg)",
    "PARAMN": 2,
    "AVAL": 1134,
    "AVISIT": "End of Study",
    "AVISITN": 99
  },
  {
    "STUDYID": "CDISCPILOT01",
    "USUBJID": "01-708-1084",
    "SITEID": "708",
    "TRT01P": "Xanomeline Low Dose",
    "TRT01A": "Xanomeline Low Dose",
    "TRT01PN": 1,
    "TRTP": "Xanomeline Low Dose",
    "TRTA": "Xanomeline Low Dose",
    "TRTSDT": "2013-05-09",
    "TRTEDT": "2013-11-11",
    "SAFFL": "Y",
    "ITTFL": "Y",
    "PARAMCD": "CUMD",
    "PARAM": "Cumulative Dose (mg)",
    "PARAMN": 2,
    "AVAL": 10098,
    "AVISIT": "End of Study",
    "AVISITN": 99
  },
  {
    "STUDYID": "CDISCPILOT01",
    "USUBJID": "01-708-1087",
    "SITEID": "708",
    "TRT01P": "Placebo",
    "TRT01A": "Placebo",
    "TRT01PN": 0,
    "TRTP": "Placebo",
    "TRTA": "Placebo",
    "TRTSDT": "2012-10-22",
    "TRTEDT": "2013-04-28",
    "SAFFL": "Y",
    "ITTFL": "Y",
    "PARAMCD": "CUMD",
    "PARAM": "Cumulative Dose (mg)",
    "PARAMN": 2,
    "AVAL": 0,
    "AVISIT": "End of Study",
    "AVISITN": 99
  },
  {
    "STUDYID": "CDISCPILOT01",
    "USUBJID": "01-708-1158",
    "SITEID": "708",
    "TRT01P": "Placebo",
    "TRT01A": "Placebo",
    "TRT01PN": 0,
    "TRTP": "Placebo",
    "TRTA": "Placebo",
    "TRTSDT": "2014-02-08",
    "TRTEDT": "2014-03-21",
    "SAFFL": "Y",
    "ITTFL": "Y",
    "PARAMCD": "CUMD",
    "PARAM": "Cumulative Dose (mg)",
    "PARAMN": 2,
    "AVAL": 0,
    "AVISIT": "End of Study",
    "AVISITN": 99
  },
  {
    "STUDYID": "CDISCPILOT01",
    "USUBJID": "01-708-1171",
    "SITEID": "708",
    "TRT01P": "Placebo",
    "TRT01A": "Placebo",
    "TRT01PN": 0,
    "TRTP": "Placebo",
    "TRTA": "Placebo",
    "TRTSDT": "2012-12-06",
    "TRTEDT": "2013-06-04",
    "SAFFL": "Y",
    "ITTFL": "Y",
    "PARAMCD": "CUMD",
    "PARAM": "Cumulative Dose (mg)",
    "PARAMN": 2,
    "AVAL": 0,
    "AVISIT": "End of Study",
    "AVISITN": 99
  },
  {
    "STUDYID": "CDISCPILOT01",
    "USUBJID": "01-708-1178",
    "SITEID": "708",
    "TRT01P": "Xanomeline High Dose",
    "TRT01A": "Xanomeline High Dose",
    "TRT01PN": 2,
    "TRTP": "Xanomeline High Dose",
    "TRTA": "Xanomeline High Dose",
    "TRTSDT": "2013-12-29",
    "TRTEDT": "2014-04-06",
    "SAFFL": "Y",
    "ITTFL": "Y",
    "PARAMCD": "CUMD",
    "PARAM": "Cumulative Dose (mg)",
    "PARAMN": 2,
    "AVAL": 7452,
    "AVISIT": "End of Study",
    "AVISITN": 99
  },
  {
    "STUDYID": "CDISCPILOT01",
    "USUBJID": "01-708-1213",
    "SITEID": "708",
    "TRT01P": "Xanomeline High Dose",
    "TRT01A": "Xanomeline Low Dose",
    "TRT01PN": 2,
    "TRTP": "Xanomeline High Dose",
    "TRTA": "Xanomeline Low Dose",
    "TRTSDT": "2013-02-09",
    "TRTEDT": "2013-02-22",
    "SAFFL": "Y",
    "ITTFL": "Y",
    "PARAMCD": "CUMD",
    "PARAM": "Cumulative Dose (mg)",
    "PARAMN": 2,
    "AVAL": 756,
    "AVISIT": "End of Study",
    "AVISITN": 99
  },
  {
    "STUDYID": "CDISCPILOT01",
    "USUBJID": "01-708-1216",
    "SITEID": "708",
    "TRT01P": "Xanomeline High Dose",
    "TRT01A": "Xanomeline High Dose",
    "TRT01PN": 2,
    "TRTP": "Xanomeline High Dose",
    "TRTA": "Xanomeline High Dose",
    "TRTSDT": "2012-10-24",
    "TRTEDT": "2012-11-29",
    "SAFFL": "Y",
    "ITTFL": "Y",
    "PARAMCD": "CUMD",
    "PARAM": "Cumulative Dose (mg)",
    "PARAMN": 2,
    "AVAL": 2565,
    "AVISIT": "End of Study",
    "AVISITN": 99
  },
  {
    "STUDYID": "CDISCPILOT01",
    "USUBJID": "01-708-1236",
    "SITEID": "708",
    "TRT01P": "Xanomeline High Dose",
    "TRT01A": "Xanomeline Low Dose",
    "TRT01PN": 2,
    "TRTP": "Xanomeline High Dose",
    "TRTA": "Xanomeline Low Dose",
    "TRTSDT": "2013-09-21",
    "TRTEDT": "2013-09-21",
    "SAFFL": "Y",
    "ITTFL": "Y",
    "PARAMCD": "CUMD",
    "PARAM": "Cumulative Dose (mg)",
    "PARAMN": 2,
    "AVAL": 54,
    "AVISIT": "End of Study",
    "AVISITN": 99
  },
  {
    "STUDYID": "CDISCPILOT01",
    "USUBJID": "01-708-1253",
    "SITEID": "708",
    "TRT01P": "Placebo",
    "TRT01A": "Placebo",
    "TRT01PN": 0,
    "TRTP": "Placebo",
    "TRTA": "Placebo",
    "TRTSDT": "2013-05-07",
    "TRTEDT": "2013-11-05",
    "SAFFL": "Y",
    "ITTFL": "Y",
    "PARAMCD": "CUMD",
    "PARAM": "Cumulative Dose (mg)",
    "PARAMN": 2,
    "AVAL": 0,
    "AVISIT": "End of Study",
    "AVISITN": 99
  },
  {
    "STUDYID": "CDISCPILOT01",
    "USUBJID": "01-708-1272",
    "SITEID": "708",
    "TRT01P": "Xanomeline Low Dose",
    "TRT01A": "Xanomeline Low Dose",
    "TRT01PN": 1,
    "TRTP": "Xanomeline Low Dose",
    "TRTA": "Xanomeline Low Dose",
    "TRTSDT": "2013-02-06",
    "TRTEDT": "2013-03-22",
    "SAFFL": "Y",
    "ITTFL": "Y",
    "PARAMCD": "CUMD",
    "PARAM": "Cumulative Dose (mg)",
    "PARAMN": 2,
    "AVAL": 2430,
    "AVISIT": "End of Study",
    "AVISITN": 99
  },
  {
    "STUDYID": "CDISCPILOT01",
    "USUBJID": "01-708-1286",
    "SITEID": "708",
    "TRT01P": "Placebo",
    "TRT01A": "Placebo",
    "TRT01PN": 0,
    "TRTP": "Placebo",
    "TRTA": "Placebo",
    "TRTSDT": "2013-09-10",
    "TRTEDT": "2014-03-08",
    "SAFFL": "Y",
    "ITTFL": "Y",
    "PARAMCD": "CUMD",
    "PARAM": "Cumulative Dose (mg)",
    "PARAMN": 2,
    "AVAL": 0,
    "AVISIT": "End of Study",
    "AVISITN": 99
  },
  {
    "STUDYID": "CDISCPILOT01",
    "USUBJID": "01-708-1296",
    "SITEID": "708",
    "TRT01P": "Placebo",
    "TRT01A": "Placebo",
    "TRT01PN": 0,
    "TRTP": "Placebo",
    "TRTA": "Placebo",
    "TRTSDT": "2013-06-14",
    "TRTEDT": "2013-12-12",
    "SAFFL": "Y",
    "ITTFL": "Y",
    "PARAMCD": "CUMD",
    "PARAM": "Cumulative Dose (mg)",
    "PARAMN": 2,
    "AVAL": 0,
    "AVISIT": "End of Study",
    "AVISITN": 99
  },
  {
    "STUDYID": "CDISCPILOT01",
    "USUBJID": "01-708-1297",
    "SITEID": "708",
    "TRT01P": "Xanomeline Low Dose",
    "TRT01A": "Xanomeline Low Dose",
    "TRT01PN": 1,
    "TRTP": "Xanomeline Low Dose",
    "TRTA": "Xanomeline Low Dose",
    "TRTSDT": "2013-01-25",
    "TRTEDT": "2013-05-03",
    "SAFFL": "Y",
    "ITTFL": "Y",
    "PARAMCD": "CUMD",
    "PARAM": "Cumulative Dose (mg)",
    "PARAMN": 2,
    "AVAL": 5346,
    "AVISIT": "End of Study",
    "AVISITN": 99
  },
  {
    "STUDYID": "CDISCPILOT01",
    "USUBJID": "01-708-1316",
    "SITEID": "708",
    "TRT01P": "Placebo",
    "TRT01A": "Placebo",
    "TRT01PN": 0,
    "TRTP": "Placebo",
    "TRTA": "Placebo",
    "TRTSDT": "2013-08-23",
    "TRTEDT": "2014-03-01",
    "SAFFL": "Y",
    "ITTFL": "Y",
    "PARAMCD": "CUMD",
    "PARAM": "Cumulative Dose (mg)",
    "PARAMN": 2,
    "AVAL": 0,
    "AVISIT": "End of Study",
    "AVISITN": 99
  },
  {
    "STUDYID": "CDISCPILOT01",
    "USUBJID": "01-708-1336",
    "SITEID": "708",
    "TRT01P": "Xanomeline High Dose",
    "TRT01A": "Xanomeline High Dose",
    "TRT01PN": 2,
    "TRTP": "Xanomeline High Dose",
    "TRTA": "Xanomeline High Dose",
    "TRTSDT": "2012-12-07",
    "TRTEDT": "2013-06-05",
    "SAFFL": "Y",
    "ITTFL": "Y",
    "PARAMCD": "CUMD",
    "PARAM": "Cumulative Dose (mg)",
    "PARAMN": 2,
    "AVAL": 13878,
    "AVISIT": "End of Study",
    "AVISITN": 99
  },
  {
    "STUDYID": "CDISCPILOT01",
    "USUBJID": "01-708-1342",
    "SITEID": "708",
    "TRT01P": "Placebo",
    "TRT01A": "Placebo",
    "TRT01PN": 0,
    "TRTP": "Placebo",
    "TRTA": "Placebo",
    "TRTSDT": "2012-12-29",
    "TRTEDT": "2013-06-28",
    "SAFFL": "Y",
    "ITTFL": "Y",
    "PARAMCD": "CUMD",
    "PARAM": "Cumulative Dose (mg)",
    "PARAMN": 2,
    "AVAL": 0,
    "AVISIT": "End of Study",
    "AVISITN": 99
  },
  {
    "STUDYID": "CDISCPILOT01",
    "USUBJID": "01-708-1347",
    "SITEID": "708",
    "TRT01P": "Xanomeline High Dose",
    "TRT01A": "Xanomeline High Dose",
    "TRT01PN": 2,
    "TRTP": "Xanomeline High Dose",
    "TRTA": "Xanomeline High Dose",
    "TRTSDT": "2013-04-20",
    "TRTEDT": "2013-06-18",
    "SAFFL": "Y",
    "ITTFL": "Y",
    "PARAMCD": "CUMD",
    "PARAM": "Cumulative Dose (mg)",
    "PARAMN": 2,
    "AVAL": 4455,
    "AVISIT": "End of Study",
    "AVISITN": 99
  },
  {
    "STUDYID": "CDISCPILOT01",
    "USUBJID": "01-708-1348",
    "SITEID": "708",
    "TRT01P": "Xanomeline Low Dose",
    "TRT01A": "Xanomeline Low Dose",
    "TRT01PN": 1,
    "TRTP": "Xanomeline Low Dose",
    "TRTA": "Xanomeline Low Dose",
    "TRTSDT": "2013-08-05",
    "TRTEDT": "2014-02-13",
    "SAFFL": "Y",
    "ITTFL": "Y",
    "PARAMCD": "CUMD",
    "PARAM": "Cumulative Dose (mg)",
    "PARAMN": 2,
    "AVAL": 10422,
    "AVISIT": "End of Study",
    "AVISITN": 99
  },
  {
    "STUDYID": "CDISCPILOT01",
    "USUBJID": "01-708-1353",
    "SITEID": "708",
    "TRT01P": "Xanomeline Low Dose",
    "TRT01A": "Xanomeline Low Dose",
    "TRT01PN": 1,
    "TRTP": "Xanomeline Low Dose",
    "TRTA": "Xanomeline Low Dose",
    "TRTSDT": "2013-07-04",
    "TRTEDT": "2013-08-28",
    "SAFFL": "Y",
    "ITTFL": "Y",
    "PARAMCD": "CUMD",
    "PARAM": "Cumulative Dose (mg)",
    "PARAMN": 2,
    "AVAL": 3024,
    "AVISIT": "End of Study",
    "AVISITN": 99
  },
  {
    "STUDYID": "CDISCPILOT01",
    "USUBJID": "01-708-1372",
    "SITEID": "708",
    "TRT01P": "Xanomeline High Dose",
    "TRT01A": "Xanomeline Low Dose",
    "TRT01PN": 2,
    "TRTP": "Xanomeline High Dose",
    "TRTA": "Xanomeline Low Dose",
    "TRTSDT": "2013-04-12",
    "TRTEDT": "2013-04-19",
    "SAFFL": "Y",
    "ITTFL": "Y",
    "PARAMCD": "CUMD",
    "PARAM": "Cumulative Dose (mg)",
    "PARAMN": 2,
    "AVAL": 432,
    "AVISIT": "End of Study",
    "AVISITN": 99
  },
  {
    "STUDYID": "CDISCPILOT01",
    "USUBJID": "01-708-1378",
    "SITEID": "708",
    "TRT01P": "Placebo",
    "TRT01A": "Placebo",
    "TRT01PN": 0,
    "TRTP": "Placebo",
    "TRTA": "Placebo",
    "TRTSDT": "2013-09-03",
    "TRTEDT": "2014-01-28",
    "SAFFL": "Y",
    "ITTFL": "Y",
    "PARAMCD": "CUMD",
    "PARAM": "Cumulative Dose (mg)",
    "PARAMN": 2,
    "AVAL": 0,
    "AVISIT": "End of Study",
    "AVISITN": 99
  },
  {
    "STUDYID": "CDISCPILOT01",
    "USUBJID": "01-708-1406",
    "SITEID": "708",
    "TRT01P": "Xanomeline High Dose",
    "TRT01A": "Xanomeline High Dose",
    "TRT01PN": 2,
    "TRTP": "Xanomeline High Dose",
    "TRTA": "Xanomeline High Dose",
    "TRTSDT": "2013-12-26",
    "TRTEDT": "2014-07-02",
    "SAFFL": "Y",
    "ITTFL": "Y",
    "PARAMCD": "CUMD",
    "PARAM": "Cumulative Dose (mg)",
    "PARAMN": 2,
    "AVAL": 14472,
    "AVISIT": "End of Study",
    "AVISITN": 99
  },
  {
    "STUDYID": "CDISCPILOT01",
    "USUBJID": "01-708-1428",
    "SITEID": "708",
    "TRT01P": "Xanomeline Low Dose",
    "TRT01A": "Xanomeline Low Dose",
    "TRT01PN": 1,
    "TRTP": "Xanomeline Low Dose",
    "TRTA": "Xanomeline Low Dose",
    "TRTSDT": "2013-11-09",
    "TRTEDT": "2013-12-14",
    "SAFFL": "Y",
    "ITTFL": "Y",
    "PARAMCD": "CUMD",
    "PARAM": "Cumulative Dose (mg)",
    "PARAMN": 2,
    "AVAL": 1944,
    "AVISIT": "End of Study",
    "AVISITN": 99
  },
  {
    "STUDYID": "CDISCPILOT01",
    "USUBJID": "01-709-1001",
    "SITEID": "709",
    "TRT01P": "Placebo",
    "TRT01A": "Placebo",
    "TRT01PN": 0,
    "TRTP": "Placebo",
    "TRTA": "Placebo",
    "TRTSDT": "2013-10-08",
    "TRTEDT": "2014-04-08",
    "SAFFL": "Y",
    "ITTFL": "Y",
    "PARAMCD": "CUMD",
    "PARAM": "Cumulative Dose (mg)",
    "PARAMN": 2,
    "AVAL": 0,
    "AVISIT": "End of Study",
    "AVISITN": 99
  },
  {
    "STUDYID": "CDISCPILOT01",
    "USUBJID": "01-709-1007",
    "SITEID": "709",
    "TRT01P": "Xanomeline Low Dose",
    "TRT01A": "Xanomeline Low Dose",
    "TRT01PN": 1,
    "TRTP": "Xanomeline Low Dose",
    "TRTA": "Xanomeline Low Dose",
    "TRTSDT": "2012-07-31",
    "TRTEDT": "2012-08-28",
    "SAFFL": "Y",
    "ITTFL": "Y",
    "PARAMCD": "CUMD",
    "PARAM": "Cumulative Dose (mg)",
    "PARAMN": 2,
    "AVAL": 1566,
    "AVISIT": "End of Study",
    "AVISITN": 99
  },
  {
    "STUDYID": "CDISCPILOT01",
    "USUBJID": "01-709-1020",
    "SITEID": "709",
    "TRT01P": "Xanomeline Low Dose",
    "TRT01A": "Xanomeline Low Dose",
    "TRT01PN": 1,
    "TRTP": "Xanomeline Low Dose",
    "TRTA": "Xanomeline Low Dose",
    "TRTSDT": "2012-12-01",
    "TRTEDT": "2013-06-01",
    "SAFFL": "Y",
    "ITTFL": "Y",
    "PARAMCD": "CUMD",
    "PARAM": "Cumulative Dose (mg)",
    "PARAMN": 2,
    "AVAL": 9882,
    "AVISIT": "End of Study",
    "AVISITN": 99
  },
  {
    "STUDYID": "CDISCPILOT01",
    "USUBJID": "01-709-1029",
    "SITEID": "709",
    "TRT01P": "Xanomeline High Dose",
    "TRT01A": "Xanomeline High Dose",
    "TRT01PN": 2,
    "TRTP": "Xanomeline High Dose",
    "TRTA": "Xanomeline High Dose",
    "TRTSDT": "2012-12-25",
    "TRTEDT": "2013-06-26",
    "SAFFL": "Y",
    "ITTFL": "Y",
    "PARAMCD": "CUMD",
    "PARAM": "Cumulative Dose (mg)",
    "PARAMN": 2,
    "AVAL": 14094,
    "AVISIT": "End of Study",
    "AVISITN": 99
  },
  {
    "STUDYID": "CDISCPILOT01",
    "USUBJID": "01-709-1081",
    "SITEID": "709",
    "TRT01P": "Xanomeline Low Dose",
    "TRT01A": "Xanomeline Low Dose",
    "TRT01PN": 1,
    "TRTP": "Xanomeline Low Dose",
    "TRTA": "Xanomeline Low Dose",
    "TRTSDT": "2014-01-18",
    "TRTEDT": "2014-04-27",
    "SAFFL": "Y",
    "ITTFL": "Y",
    "PARAMCD": "CUMD",
    "PARAM": "Cumulative Dose (mg)",
    "PARAMN": 2,
    "AVAL": 5400,
    "AVISIT": "End of Study",
    "AVISITN": 99
  },
  {
    "STUDYID": "CDISCPILOT01",
    "USUBJID": "01-709-1088",
    "SITEID": "709",
    "TRT01P": "Placebo",
    "TRT01A": "Placebo",
    "TRT01PN": 0,
    "TRTP": "Placebo",
    "TRTA": "Placebo",
    "TRTSDT": "2014-04-12",
    "TRTEDT": "2014-10-09",
    "SAFFL": "Y",
    "ITTFL": "Y",
    "PARAMCD": "CUMD",
    "PARAM": "Cumulative Dose (mg)",
    "PARAMN": 2,
    "AVAL": 0,
    "AVISIT": "End of Study",
    "AVISITN": 99
  },
  {
    "STUDYID": "CDISCPILOT01",
    "USUBJID": "01-709-1099",
    "SITEID": "709",
    "TRT01P": "Xanomeline High Dose",
    "TRT01A": "Xanomeline High Dose",
    "TRT01PN": 2,
    "TRTP": "Xanomeline High Dose",
    "TRTA": "Xanomeline High Dose",
    "TRTSDT": "2013-10-25",
    "TRTEDT": "2014-04-25",
    "SAFFL": "Y",
    "ITTFL": "Y",
    "PARAMCD": "CUMD",
    "PARAM": "Cumulative Dose (mg)",
    "PARAMN": 2,
    "AVAL": 13932,
    "AVISIT": "End of Study",
    "AVISITN": 99
  },
  {
    "STUDYID": "CDISCPILOT01",
    "USUBJID": "01-709-1102",
    "SITEID": "709",
    "TRT01P": "Xanomeline Low Dose",
    "TRT01A": "Xanomeline Low Dose",
    "TRT01PN": 1,
    "TRTP": "Xanomeline Low Dose",
    "TRTA": "Xanomeline Low Dose",
    "TRTSDT": "2013-01-15",
    "TRTEDT": "2013-03-27",
    "SAFFL": "Y",
    "ITTFL": "Y",
    "PARAMCD": "CUMD",
    "PARAM": "Cumulative Dose (mg)",
    "PARAMN": 2,
    "AVAL": 3888,
    "AVISIT": "End of Study",
    "AVISITN": 99
  },
  {
    "STUDYID": "CDISCPILOT01",
    "USUBJID": "01-709-1168",
    "SITEID": "709",
    "TRT01P": "Xanomeline High Dose",
    "TRT01A": "Xanomeline High Dose",
    "TRT01PN": 2,
    "TRTP": "Xanomeline High Dose",
    "TRTA": "Xanomeline High Dose",
    "TRTSDT": "2013-08-02",
    "TRTEDT": "2013-09-26",
    "SAFFL": "Y",
    "ITTFL": "Y",
    "PARAMCD": "CUMD",
    "PARAM": "Cumulative Dose (mg)",
    "PARAMN": 2,
    "AVAL": 4104,
    "AVISIT": "End of Study",
    "AVISITN": 99
  },
  {
    "STUDYID": "CDISCPILOT01",
    "USUBJID": "01-709-1217",
    "SITEID": "709",
    "TRT01P": "Xanomeline Low Dose",
    "TRT01A": "Xanomeline Low Dose",
    "TRT01PN": 1,
    "TRTP": "Xanomeline Low Dose",
    "TRTA": "Xanomeline Low Dose",
    "TRTSDT": "2013-03-04",
    "TRTEDT": "2013-06-11",
    "SAFFL": "Y",
    "ITTFL": "Y",
    "PARAMCD": "CUMD",
    "PARAM": "Cumulative Dose (mg)",
    "PARAMN": 2,
    "AVAL": 5400,
    "AVISIT": "End of Study",
    "AVISITN": 99
  },
  {
    "STUDYID": "CDISCPILOT01",
    "USUBJID": "01-709-1238",
    "SITEID": "709",
    "TRT01P": "Xanomeline High Dose",
    "TRT01A": "Xanomeline High Dose",
    "TRT01PN": 2,
    "TRTP": "Xanomeline High Dose",
    "TRTA": "Xanomeline High Dose",
    "TRTSDT": "2013-05-15",
    "TRTEDT": "2013-08-06",
    "SAFFL": "Y",
    "ITTFL": "Y",
    "PARAMCD": "CUMD",
    "PARAM": "Cumulative Dose (mg)",
    "PARAMN": 2,
    "AVAL": 6399,
    "AVISIT": "End of Study",
    "AVISITN": 99
  },
  {
    "STUDYID": "CDISCPILOT01",
    "USUBJID": "01-709-1259",
    "SITEID": "709",
    "TRT01P": "Placebo",
    "TRT01A": "Placebo",
    "TRT01PN": 0,
    "TRTP": "Placebo",
    "TRTA": "Placebo",
    "TRTSDT": "2013-01-26",
    "TRTEDT": "2013-06-13",
    "SAFFL": "Y",
    "ITTFL": "Y",
    "PARAMCD": "CUMD",
    "PARAM": "Cumulative Dose (mg)",
    "PARAMN": 2,
    "AVAL": 0,
    "AVISIT": "End of Study",
    "AVISITN": 99
  },
  {
    "STUDYID": "CDISCPILOT01",
    "USUBJID": "01-709-1285",
    "SITEID": "709",
    "TRT01P": "Xanomeline Low Dose",
    "TRT01A": "Xanomeline Low Dose",
    "TRT01PN": 1,
    "TRTP": "Xanomeline Low Dose",
    "TRTA": "Xanomeline Low Dose",
    "TRTSDT": "2013-03-24",
    "TRTEDT": "2013-05-23",
    "SAFFL": "Y",
    "ITTFL": "Y",
    "PARAMCD": "CUMD",
    "PARAM": "Cumulative Dose (mg)",
    "PARAMN": 2,
    "AVAL": 3294,
    "AVISIT": "End of Study",
    "AVISITN": 99
  },
  {
    "STUDYID": "CDISCPILOT01",
    "USUBJID": "01-709-1301",
    "SITEID": "709",
    "TRT01P": "Placebo",
    "TRT01A": "Placebo",
    "TRT01PN": 0,
    "TRTP": "Placebo",
    "TRTA": "Placebo",
    "TRTSDT": "2013-07-19",
    "TRTEDT": "2014-01-17",
    "SAFFL": "Y",
    "ITTFL": "Y",
    "PARAMCD": "CUMD",
    "PARAM": "Cumulative Dose (mg)",
    "PARAMN": 2,
    "AVAL": 0,
    "AVISIT": "End of Study",
    "AVISITN": 99
  },
  {
    "STUDYID": "CDISCPILOT01",
    "USUBJID": "01-709-1306",
    "SITEID": "709",
    "TRT01P": "Placebo",
    "TRT01A": "Placebo",
    "TRT01PN": 0,
    "TRTP": "Placebo",
    "TRTA": "Placebo",
    "TRTSDT": "2014-02-03",
    "TRTEDT": "2014-06-16",
    "SAFFL": "Y",
    "ITTFL": "Y",
    "PARAMCD": "CUMD",
    "PARAM": "Cumulative Dose (mg)",
    "PARAMN": 2,
    "AVAL": 0,
    "AVISIT": "End of Study",
    "AVISITN": 99
  },
  {
    "STUDYID": "CDISCPILOT01",
    "USUBJID": "01-709-1309",
    "SITEID": "709",
    "TRT01P": "Xanomeline High Dose",
    "TRT01A": "Xanomeline High Dose",
    "TRT01PN": 2,
    "TRTP": "Xanomeline High Dose",
    "TRTA": "Xanomeline High Dose",
    "TRTSDT": "2013-06-19",
    "TRTEDT": "2013-12-19",
    "SAFFL": "Y",
    "ITTFL": "Y",
    "PARAMCD": "CUMD",
    "PARAM": "Cumulative Dose (mg)",
    "PARAMN": 2,
    "AVAL": 14175,
    "AVISIT": "End of Study",
    "AVISITN": 99
  },
  {
    "STUDYID": "CDISCPILOT01",
    "USUBJID": "01-709-1312",
    "SITEID": "709",
    "TRT01P": "Placebo",
    "TRT01A": "Placebo",
    "TRT01PN": 0,
    "TRTP": "Placebo",
    "TRTA": "Placebo",
    "TRTSDT": "2014-04-20",
    "TRTEDT": "2014-10-19",
    "SAFFL": "Y",
    "ITTFL": "Y",
    "PARAMCD": "CUMD",
    "PARAM": "Cumulative Dose (mg)",
    "PARAMN": 2,
    "AVAL": 0,
    "AVISIT": "End of Study",
    "AVISITN": 99
  },
  {
    "STUDYID": "CDISCPILOT01",
    "USUBJID": "01-709-1326",
    "SITEID": "709",
    "TRT01P": "Xanomeline Low Dose",
    "TRT01A": "Xanomeline Low Dose",
    "TRT01PN": 1,
    "TRTP": "Xanomeline Low Dose",
    "TRTA": "Xanomeline Low Dose",
    "TRTSDT": "2013-04-05",
    "TRTEDT": "2013-10-02",
    "SAFFL": "Y",
    "ITTFL": "Y",
    "PARAMCD": "CUMD",
    "PARAM": "Cumulative Dose (mg)",
    "PARAMN": 2,
    "AVAL": 9774,
    "AVISIT": "End of Study",
    "AVISITN": 99
  },
  {
    "STUDYID": "CDISCPILOT01",
    "USUBJID": "01-709-1329",
    "SITEID": "709",
    "TRT01P": "Xanomeline High Dose",
    "TRT01A": "Xanomeline Low Dose",
    "TRT01PN": 2,
    "TRTP": "Xanomeline High Dose",
    "TRTA": "Xanomeline Low Dose",
    "TRTSDT": "2013-08-15",
    "TRTEDT": "2013-08-25",
    "SAFFL": "Y",
    "ITTFL": "Y",
    "PARAMCD": "CUMD",
    "PARAM": "Cumulative Dose (mg)",
    "PARAMN": 2,
    "AVAL": 594,
    "AVISIT": "End of Study",
    "AVISITN": 99
  },
  {
    "STUDYID": "CDISCPILOT01",
    "USUBJID": "01-709-1339",
    "SITEID": "709",
    "TRT01P": "Placebo",
    "TRT01A": "Placebo",
    "TRT01PN": 0,
    "TRTP": "Placebo",
    "TRTA": "Placebo",
    "TRTSDT": "2012-12-23",
    "TRTEDT": "2013-06-24",
    "SAFFL": "Y",
    "ITTFL": "Y",
    "PARAMCD": "CUMD",
    "PARAM": "Cumulative Dose (mg)",
    "PARAMN": 2,
    "AVAL": 0,
    "AVISIT": "End of Study",
    "AVISITN": 99
  },
  {
    "STUDYID": "CDISCPILOT01",
    "USUBJID": "01-709-1424",
    "SITEID": "709",
    "TRT01P": "Xanomeline High Dose",
    "TRT01A": "Xanomeline Low Dose",
    "TRT01PN": 2,
    "TRTP": "Xanomeline High Dose",
    "TRTA": "Xanomeline Low Dose",
    "TRTSDT": "2013-03-03",
    "TRTEDT": "2013-03-07",
    "SAFFL": "Y",
    "ITTFL": "Y",
    "PARAMCD": "CUMD",
    "PARAM": "Cumulative Dose (mg)",
    "PARAMN": 2,
    "AVAL": 270,
    "AVISIT": "End of Study",
    "AVISITN": 99
  },
  {
    "STUDYID": "CDISCPILOT01",
    "USUBJID": "01-710-1002",
    "SITEID": "710",
    "TRT01P": "Xanomeline Low Dose",
    "TRT01A": "Xanomeline Low Dose",
    "TRT01PN": 1,
    "TRTP": "Xanomeline Low Dose",
    "TRTA": "Xanomeline Low Dose",
    "TRTSDT": "2014-01-14",
    "TRTEDT": "2014-01-18",
    "SAFFL": "Y",
    "ITTFL": "Y",
    "PARAMCD": "CUMD",
    "PARAM": "Cumulative Dose (mg)",
    "PARAMN": 2,
    "AVAL": 270,
    "AVISIT": "End of Study",
    "AVISITN": 99
  },
  {
    "STUDYID": "CDISCPILOT01",
    "USUBJID": "01-710-1006",
    "SITEID": "710",
    "TRT01P": "Xanomeline High Dose",
    "TRT01A": "Xanomeline High Dose",
    "TRT01PN": 2,
    "TRTP": "Xanomeline High Dose",
    "TRTA": "Xanomeline High Dose",
    "TRTSDT": "2013-02-10",
    "TRTEDT": "2013-08-09",
    "SAFFL": "Y",
    "ITTFL": "Y",
    "PARAMCD": "CUMD",
    "PARAM": "Cumulative Dose (mg)",
    "PARAMN": 2,
    "AVAL": 13959,
    "AVISIT": "End of Study",
    "AVISITN": 99
  },
  {
    "STUDYID": "CDISCPILOT01",
    "USUBJID": "01-710-1021",
    "SITEID": "710",
    "TRT01P": "Xanomeline High Dose",
    "TRT01A": "Xanomeline High Dose",
    "TRT01PN": 2,
    "TRTP": "Xanomeline High Dose",
    "TRTA": "Xanomeline High Dose",
    "TRTSDT": "2013-09-27",
    "TRTEDT": "2013-10-29",
    "SAFFL": "Y",
    "ITTFL": "Y",
    "PARAMCD": "CUMD",
    "PARAM": "Cumulative Dose (mg)",
    "PARAMN": 2,
    "AVAL": 2268,
    "AVISIT": "End of Study",
    "AVISITN": 99
  },
  {
    "STUDYID": "CDISCPILOT01",
    "USUBJID": "01-710-1027",
    "SITEID": "710",
    "TRT01P": "Placebo",
    "TRT01A": "Placebo",
    "TRT01PN": 0,
    "TRTP": "Placebo",
    "TRTA": "Placebo",
    "TRTSDT": "2014-02-28",
    "TRTEDT": "2014-08-29",
    "SAFFL": "Y",
    "ITTFL": "Y",
    "PARAMCD": "CUMD",
    "PARAM": "Cumulative Dose (mg)",
    "PARAMN": 2,
    "AVAL": 0,
    "AVISIT": "End of Study",
    "AVISITN": 99
  },
  {
    "STUDYID": "CDISCPILOT01",
    "USUBJID": "01-710-1045",
    "SITEID": "710",
    "TRT01P": "Xanomeline Low Dose",
    "TRT01A": "Xanomeline Low Dose",
    "TRT01PN": 1,
    "TRTP": "Xanomeline Low Dose",
    "TRTA": "Xanomeline Low Dose",
    "TRTSDT": "2013-06-03",
    "TRTEDT": "2013-08-13",
    "SAFFL": "Y",
    "ITTFL": "Y",
    "PARAMCD": "CUMD",
    "PARAM": "Cumulative Dose (mg)",
    "PARAMN": 2,
    "AVAL": 3888,
    "AVISIT": "End of Study",
    "AVISITN": 99
  },
  {
    "STUDYID": "CDISCPILOT01",
    "USUBJID": "01-710-1053",
    "SITEID": "710",
    "TRT01P": "Xanomeline Low Dose",
    "TRT01A": "Xanomeline Low Dose",
    "TRT01PN": 1,
    "TRTP": "Xanomeline Low Dose",
    "TRTA": "Xanomeline Low Dose",
    "TRTSDT": "2012-12-26",
    "TRTEDT": "2013-02-10",
    "SAFFL": "Y",
    "ITTFL": "Y",
    "PARAMCD": "CUMD",
    "PARAM": "Cumulative Dose (mg)",
    "PARAMN": 2,
    "AVAL": 2538,
    "AVISIT": "End of Study",
    "AVISITN": 99
  },
  {
    "STUDYID": "CDISCPILOT01",
    "USUBJID": "01-710-1060",
    "SITEID": "710",
    "TRT01P": "Placebo",
    "TRT01A": "Placebo",
    "TRT01PN": 0,
    "TRTP": "Placebo",
    "TRTA": "Placebo",
    "TRTSDT": "2013-01-01",
    "TRTEDT": "2013-07-05",
    "SAFFL": "Y",
    "ITTFL": "Y",
    "PARAMCD": "CUMD",
    "PARAM": "Cumulative Dose (mg)",
    "PARAMN": 2,
    "AVAL": 0,
    "AVISIT": "End of Study",
    "AVISITN": 99
  },
  {
    "STUDYID": "CDISCPILOT01",
    "USUBJID": "01-710-1070",
    "SITEID": "710",
    "TRT01P": "Xanomeline High Dose",
    "TRT01A": "Xanomeline High Dose",
    "TRT01PN": 2,
    "TRTP": "Xanomeline High Dose",
    "TRTA": "Xanomeline High Dose",
    "TRTSDT": "2012-09-08",
    "TRTEDT": "2013-01-22",
    "SAFFL": "Y",
    "ITTFL": "Y",
    "PARAMCD": "CUMD",
    "PARAM": "Cumulative Dose (mg)",
    "PARAMN": 2,
    "AVAL": 10692,
    "AVISIT": "End of Study",
    "AVISITN": 99
  },
  {
    "STUDYID": "CDISCPILOT01",
    "USUBJID": "01-710-1077",
    "SITEID": "710",
    "TRT01P": "Placebo",
    "TRT01A": "Placebo",
    "TRT01PN": 0,
    "TRTP": "Placebo",
    "TRTA": "Placebo",
    "TRTSDT": "2013-11-17",
    "TRTEDT": "2014-05-18",
    "SAFFL": "Y",
    "ITTFL": "Y",
    "PARAMCD": "CUMD",
    "PARAM": "Cumulative Dose (mg)",
    "PARAMN": 2,
    "AVAL": 0,
    "AVISIT": "End of Study",
    "AVISITN": 99
  },
  {
    "STUDYID": "CDISCPILOT01",
    "USUBJID": "01-710-1078",
    "SITEID": "710",
    "TRT01P": "Placebo",
    "TRT01A": "Placebo",
    "TRT01PN": 0,
    "TRTP": "Placebo",
    "TRTA": "Placebo",
    "TRTSDT": "2013-09-17",
    "TRTEDT": "2014-03-23",
    "SAFFL": "Y",
    "ITTFL": "Y",
    "PARAMCD": "CUMD",
    "PARAM": "Cumulative Dose (mg)",
    "PARAMN": 2,
    "AVAL": 0,
    "AVISIT": "End of Study",
    "AVISITN": 99
  },
  {
    "STUDYID": "CDISCPILOT01",
    "USUBJID": "01-710-1083",
    "SITEID": "710",
    "TRT01P": "Placebo",
    "TRT01A": "Placebo",
    "TRT01PN": 0,
    "TRTP": "Placebo",
    "TRTA": "Placebo",
    "TRTSDT": "2013-07-22",
    "TRTEDT": "2013-08-01",
    "SAFFL": "Y",
    "ITTFL": "Y",
    "PARAMCD": "CUMD",
    "PARAM": "Cumulative Dose (mg)",
    "PARAMN": 2,
    "AVAL": 0,
    "AVISIT": "End of Study",
    "AVISITN": 99
  },
  {
    "STUDYID": "CDISCPILOT01",
    "USUBJID": "01-710-1137",
    "SITEID": "710",
    "TRT01P": "Xanomeline High Dose",
    "TRT01A": "Xanomeline High Dose",
    "TRT01PN": 2,
    "TRTP": "Xanomeline High Dose",
    "TRTA": "Xanomeline High Dose",
    "TRTSDT": "2013-10-11",
    "TRTEDT": "2013-11-13",
    "SAFFL": "Y",
    "ITTFL": "Y",
    "PARAMCD": "CUMD",
    "PARAM": "Cumulative Dose (mg)",
    "PARAMN": 2,
    "AVAL": 2349,
    "AVISIT": "End of Study",
    "AVISITN": 99
  },
  {
    "STUDYID": "CDISCPILOT01",
    "USUBJID": "01-710-1142",
    "SITEID": "710",
    "TRT01P": "Xanomeline High Dose",
    "TRT01A": "Xanomeline High Dose",
    "TRT01PN": 2,
    "TRTP": "Xanomeline High Dose",
    "TRTA": "Xanomeline High Dose",
    "TRTSDT": "2012-10-02",
    "TRTEDT": "2012-10-20",
    "SAFFL": "Y",
    "ITTFL": "Y",
    "PARAMCD": "CUMD",
    "PARAM": "Cumulative Dose (mg)",
    "PARAMN": 2,
    "AVAL": 1134,
    "AVISIT": "End of Study",
    "AVISITN": 99
  },
  {
    "STUDYID": "CDISCPILOT01",
    "USUBJID": "01-710-1154",
    "SITEID": "710",
    "TRT01P": "Xanomeline Low Dose",
    "TRT01A": "Xanomeline Low Dose",
    "TRT01PN": 1,
    "TRTP": "Xanomeline Low Dose",
    "TRTA": "Xanomeline Low Dose",
    "TRTSDT": "2014-03-29",
    "TRTEDT": "2014-04-27",
    "SAFFL": "Y",
    "ITTFL": "Y",
    "PARAMCD": "CUMD",
    "PARAM": "Cumulative Dose (mg)",
    "PARAMN": 2,
    "AVAL": 1620,
    "AVISIT": "End of Study",
    "AVISITN": 99
  },
  {
    "STUDYID": "CDISCPILOT01",
    "USUBJID": "01-710-1166",
    "SITEID": "710",
    "TRT01P": "Xanomeline Low Dose",
    "TRT01A": "Xanomeline Low Dose",
    "TRT01PN": 1,
    "TRTP": "Xanomeline Low Dose",
    "TRTA": "Xanomeline Low Dose",
    "TRTSDT": "2012-11-30",
    "TRTEDT": "2013-03-19",
    "SAFFL": "Y",
    "ITTFL": "Y",
    "PARAMCD": "CUMD",
    "PARAM": "Cumulative Dose (mg)",
    "PARAMN": 2,
    "AVAL": 5940,
    "AVISIT": "End of Study",
    "AVISITN": 99
  },
  {
    "STUDYID": "CDISCPILOT01",
    "USUBJID": "01-710-1183",
    "SITEID": "710",
    "TRT01P": "Placebo",
    "TRT01A": "Placebo",
    "TRT01PN": 0,
    "TRTP": "Placebo",
    "TRTA": "Placebo",
    "TRTSDT": "2013-11-16",
    "TRTEDT": "2014-05-17",
    "SAFFL": "Y",
    "ITTFL": "Y",
    "PARAMCD": "CUMD",
    "PARAM": "Cumulative Dose (mg)",
    "PARAMN": 2,
    "AVAL": 0,
    "AVISIT": "End of Study",
    "AVISITN": 99
  },
  {
    "STUDYID": "CDISCPILOT01",
    "USUBJID": "01-710-1187",
    "SITEID": "710",
    "TRT01P": "Xanomeline High Dose",
    "TRT01A": "Xanomeline High Dose",
    "TRT01PN": 2,
    "TRTP": "Xanomeline High Dose",
    "TRTA": "Xanomeline High Dose",
    "TRTSDT": "2012-11-10",
    "TRTEDT": "2013-05-12",
    "SAFFL": "Y",
    "ITTFL": "Y",
    "PARAMCD": "CUMD",
    "PARAM": "Cumulative Dose (mg)",
    "PARAMN": 2,
    "AVAL": 14121,
    "AVISIT": "End of Study",
    "AVISITN": 99
  },
  {
    "STUDYID": "CDISCPILOT01",
    "USUBJID": "01-710-1235",
    "SITEID": "710",
    "TRT01P": "Xanomeline Low Dose",
    "TRT01A": "Xanomeline Low Dose",
    "TRT01PN": 1,
    "TRTP": "Xanomeline Low Dose",
    "TRTA": "Xanomeline Low Dose",
    "TRTSDT": "2012-09-26",
    "TRTEDT": "2013-03-27",
    "SAFFL": "Y",
    "ITTFL": "Y",
    "PARAMCD": "CUMD",
    "PARAM": "Cumulative Dose (mg)",
    "PARAMN": 2,
    "AVAL": 9882,
    "AVISIT": "End of Study",
    "AVISITN": 99
  },
  {
    "STUDYID": "CDISCPILOT01",
