[
  {
    "STUDYID": "CDISCPILOT01",
    "USUBJID": "01-701-1146",
    "SITEID": "701",
    "SITEGR1": "701",
    "TRT01P": "Xanomeline High Dose",
    "TRT01A": "Xanomeline High Dose",
    "TRT01PN": 2,
    "TRTP": "Xanomeline High Dose",
    "TRTA": "Xanomeline High Dose",
    "TRTSDT": "2013-05-20",
    "TRTEDT": "2013-06-26",
    "SAFFL": "Y",
    "ITTFL": "Y",
    "EFFFL": "Y",
    "PARAMCD": "CIBIC",
    "PARAM": "CIBIC+ Score",
    "PARAMN": 1,
    "AVAL": 4,
    "AVALC": "4",
    "BASE": null,
    "CHG": null,
    "AVISIT": "Week 8",
    "AVISITN": 8,
    "ADT": "2013-06-30",
    "ADY": 42,
    "ABLFL": null,
    "ANL01FL": "Y",
    "ANL02FL": "Y",
    "DTYPE": null
  },
  {
    "STUDYID": "CDISCPILOT01",
    "USUBJID": "01-701-1180",
    "SITEID": "701",
    "SITEGR1": "701",
    "TRT01P": "Xanomeline High Dose",
    "TRT01A": "Xanomeline High Dose",
    "TRT01PN": 2,
    "TRTP": "Xanomeline High Dose",
    "TRTA": "Xanomeline High Dose",
    "TRTSDT": "2013-02-12",
    "TRTEDT": "2013-03-18",
    "SAFFL": "Y",
    "ITTFL": "Y",
    "EFFFL": "Y",
    "PARAMCD": "CIBIC",
    "PARAM": "CIBIC+ Score",
    "PARAMN": 1,
    "AVAL": 5,
    "AVALC": "5",
    "BASE": null,
    "CHG": null,
    "AVISIT": "Week 8",
    "AVISITN": 8,
    "ADT": "2013-03-23",
    "ADY": 40,
    "ABLFL": null,
    "ANL01FL": "Y",
    "ANL02FL": "Y",
    "DTYPE": null
  },
  {
    "STUDYID": "CDISCPILOT01",
    "USUBJID": "01-701-1188",
    "SITEID": "701",
    "SITEGR1": "701",
    "TRT01P": "Xanomeline Low Dose",
    "TRT01A": "Xanomeline Low Dose",
    "TRT01PN": 1,
    "TRTP": "Xanomeline Low Dose",
    "TRTA": "Xanomeline Low Dose",
    "TRTSDT": "2013-02-15",
    "TRTEDT": "2013-03-24",
    "SAFFL": "Y",
    "ITTFL": "Y",
    "EFFFL": "Y",
    "PARAMCD": "CIBIC",
    "PARAM": "CIBIC+ Score",
    "PARAMN": 1,
    "AVAL": 4,
    "AVALC": "4",
    "BASE": null,
    "CHG": null,
    "AVISIT": "Week 8",
    "AVISITN": 8,
    "ADT": "2013-03-25",
    "ADY": 39,
    "ABLFL": null,
    "ANL01FL": "Y",
    "ANL02FL": "Y",
    "DTYPE": null
  },
  {
    "STUDYID": "CDISCPILOT01",
    "USUBJID": "01-701-1294",
    "SITEID": "701",
    "SITEGR1": "701",
    "TRT01P": "Xanomeline Low Dose",
    "TRT01A": "Xanomeline Low Dose",
    "TRT01PN": 1,
    "TRTP": "Xanomeline Low Dose",
    "TRTA": "Xanomeline Low Dose",
    "TRTSDT": "2013-03-24",
    "TRTEDT": "2013-06-14",
    "SAFFL": "Y",
    "ITTFL": "Y",
    "EFFFL": "Y",
    "PARAMCD": "CIBIC",
    "PARAM": "CIBIC+ Score",
    "PARAMN": 1,
    "AVAL": 4,
    "AVALC": "4",
    "BASE": null,
    "CHG": null,
    "AVISIT": "Week 16",
    "AVISITN": 16,
    "ADT": "2013-06-14",
    "ADY": 83,
    "ABLFL": null,
    "ANL01FL": "Y",
    "ANL02FL": "Y",
    "DTYPE": null
  },
  {
    "STUDYID": "CDISCPILOT01",
    "USUBJID": "01-701-1302",
    "SITEID": "701",
    "SITEGR1": "701",
    "TRT01P": "Xanomeline High Dose",
    "TRT01A": "Xanomeline High Dose",
    "TRT01PN": 2,
    "TRTP": "Xanomeline High Dose",
    "TRTA": "Xanomeline High Dose",
    "TRTSDT": "2013-08-29",
    "TRTEDT": "2013-11-05",
    "SAFFL": "Y",
    "ITTFL": "Y",
    "EFFFL": "Y",
    "PARAMCD": "CIBIC",
    "PARAM": "CIBIC+ Score",
    "PARAMN": 1,
    "AVAL": 5,
    "AVALC": "5",
    "BASE": null,
    "CHG": null,
    "AVISIT": "Week 16",
    "AVISITN": 16,
    "ADT": "2013-11-05",
    "ADY": 69,
    "ABLFL": null,
    "ANL01FL": "Y",
    "ANL02FL": "Y",
    "DTYPE": null
  },
  {
    "STUDYID": "CDISCPILOT01",
    "USUBJID": "01-701-1429",
    "SITEID": "701",
    "SITEGR1": "701",
    "TRT01P": "Xanomeline Low Dose",
    "TRT01A": "Xanomeline Low Dose",
    "TRT01PN": 1,
    "TRTP": "Xanomeline Low Dose",
    "TRTA": "Xanomeline Low Dose",
    "TRTSDT": "2013-03-19",
    "TRTEDT": "2013-04-30",
    "SAFFL": "Y",
    "ITTFL": "Y",
    "EFFFL": "Y",
    "PARAMCD": "CIBIC",
    "PARAM": "CIBIC+ Score",
    "PARAMN": 1,
    "AVAL": 3,
    "AVALC": "3",
    "BASE": null,
    "CHG": null,
    "AVISIT": "Week 8",
    "AVISITN": 8,
    "ADT": "2013-04-30",
    "ADY": 43,
    "ABLFL": null,
    "ANL01FL": "Y",
    "ANL02FL": "Y",
    "DTYPE": null
  },
  {
    "STUDYID": "CDISCPILOT01",
    "USUBJID": "01-701-1444",
    "SITEID": "701",
    "SITEGR1": "701",
    "TRT01P": "Xanomeline High Dose",
    "TRT01A": "Xanomeline High Dose",
    "TRT01PN": 2,
    "TRTP": "Xanomeline High Dose",
    "TRTA": "Xanomeline High Dose",
    "TRTSDT": "2013-01-05",
    "TRTEDT": "2013-02-12",
    "SAFFL": "Y",
    "ITTFL": "Y",
    "EFFFL": "Y",
    "PARAMCD": "CIBIC",
    "PARAM": "CIBIC+ Score",
    "PARAMN": 1,
    "AVAL": 5,
    "AVALC": "5",
    "BASE": null,
    "CHG": null,
    "AVISIT": "Week 8",
    "AVISITN": 8,
    "ADT": "2013-02-13",
    "ADY": 40,
    "ABLFL": null,
    "ANL01FL": "Y",
    "ANL02FL": "Y",
    "DTYPE": null
  },
  {
    "STUDYID": "CDISCPILOT01",
    "USUBJID": "01-702-1082",
    "SITEID": "702",
    "SITEGR1": "900",
    "TRT01P": "Xanomeline Low Dose",
    "TRT01A": "Xanomeline Low Dose",
    "TRT01PN": 1,
    "TRTP": "Xanomeline Low Dose",
    "TRTA": "Xanomeline Low Dose",
    "TRTSDT": "2013-07-26",
    "TRTEDT": "2013-10-13",
    "SAFFL": "Y",
    "ITTFL": "Y",
    "EFFFL": "Y",
    "PARAMCD": "CIBIC",
    "PARAM": "CIBIC+ Score",
    "PARAMN": 1,
    "AVAL": 4,
    "AVALC": "4",
    "BASE": null,
    "CHG": null,
    "AVISIT": "Week 16",
    "AVISITN": 16,
    "ADT": "2013-11-17",
    "ADY": 115,
    "ABLFL": null,
    "ANL01FL": "Y",
    "ANL02FL": "Y",
    "DTYPE": null
  },
  {
    "STUDYID": "CDISCPILOT01",
    "USUBJID": "01-703-1076",
    "SITEID": "703",
    "SITEGR1": "703",
    "TRT01P": "Xanomeline High Dose",
    "TRT01A": "Xanomeline High Dose",
    "TRT01PN": 2,
    "TRTP": "Xanomeline High Dose",
    "TRTA": "Xanomeline High Dose",
    "TRTSDT": "2013-10-25",
    "TRTEDT": "2013-12-24",
    "SAFFL": "Y",
    "ITTFL": "Y",
    "EFFFL": "Y",
    "PARAMCD": "CIBIC",
    "PARAM": "CIBIC+ Score",
    "PARAMN": 1,
    "AVAL": 3,
    "AVALC": "3",
    "BASE": null,
    "CHG": null,
    "AVISIT": "Week 16",
    "AVISITN": 16,
    "ADT": "2013-12-24",
    "ADY": 61,
    "ABLFL": null,
    "ANL01FL": "Y",
    "ANL02FL": "Y",
    "DTYPE": null
  },
  {
    "STUDYID": "CDISCPILOT01",
    "USUBJID": "01-703-1335",
    "SITEID": "703",
    "SITEGR1": "703",
    "TRT01P": "Xanomeline High Dose",
    "TRT01A": "Xanomeline High Dose",
    "TRT01PN": 2,
    "TRTP": "Xanomeline High Dose",
    "TRTA": "Xanomeline High Dose",
    "TRTSDT": "2014-03-17",
    "TRTEDT": "2014-05-07",
    "SAFFL": "Y",
    "ITTFL": "Y",
    "EFFFL": "Y",
    "PARAMCD": "CIBIC",
    "PARAM": "CIBIC+ Score",
    "PARAMN": 1,
    "AVAL": 5,
    "AVALC": "5",
    "BASE": null,
    "CHG": null,
    "AVISIT": "Week 8",
    "AVISITN": 8,
    "ADT": "2014-05-24",
    "ADY": 69,
    "ABLFL": null,
    "ANL01FL": "Y",
    "ANL02FL": "Y",
    "DTYPE": null
  },
  {
    "STUDYID": "CDISCPILOT01",
    "USUBJID": "01-704-1008",
    "SITEID": "704",
    "SITEGR1": "704",
    "TRT01P": "Xanomeline High Dose",
    "TRT01A": "Xanomeline High Dose",
    "TRT01PN": 2,
    "TRTP": "Xanomeline High Dose",
    "TRTA": "Xanomeline High Dose",
    "TRTSDT": "2013-01-13",
    "TRTEDT": "2013-02-21",
    "SAFFL": "Y",
    "ITTFL": "Y",
    "EFFFL": "Y",
    "PARAMCD": "CIBIC",
    "PARAM": "CIBIC+ Score",
    "PARAMN": 1,
    "AVAL": 5,
    "AVALC": "5",
    "BASE": null,
    "CHG": null,
    "AVISIT": "Week 8",
    "AVISITN": 8,
    "ADT": "2013-02-25",
    "ADY": 44,
    "ABLFL": null,
    "ANL01FL": "Y",
    "ANL02FL": "Y",
    "DTYPE": null
  },
  {
    "STUDYID": "CDISCPILOT01",
    "USUBJID": "01-704-1010",
    "SITEID": "704",
    "SITEGR1": "704",
    "TRT01P": "Placebo",
    "TRT01A": "Placebo",
    "TRT01PN": 0,
    "TRTP": "Placebo",
    "TRTA": "Placebo",
    "TRTSDT": "2014-02-21",
    "TRTEDT": "2014-07-08",
    "SAFFL": "Y",
    "ITTFL": "Y",
    "EFFFL": "Y",
    "PARAMCD": "CIBIC",
    "PARAM": "CIBIC+ Score",
    "PARAMN": 1,
    "AVAL": 3,
    "AVALC": "3",
    "BASE": null,
    "CHG": null,
    "AVISIT": "Week 24",
    "AVISITN": 24,
    "ADT": "2014-07-09",
    "ADY": 139,
    "ABLFL": null,
    "ANL01FL": "Y",
    "ANL02FL": "Y",
    "DTYPE": null
  },
  {
    "STUDYID": "CDISCPILOT01",
    "USUBJID": "01-704-1017",
    "SITEID": "704",
    "SITEGR1": "704",
    "TRT01P": "Xanomeline High Dose",
    "TRT01A": "Xanomeline High Dose",
    "TRT01PN": 2,
    "TRTP": "Xanomeline High Dose",
    "TRTA": "Xanomeline High Dose",
    "TRTSDT": "2013-10-06",
    "TRTEDT": "2013-11-18",
    "SAFFL": "Y",
    "ITTFL": "Y",
    "EFFFL": "Y",
    "PARAMCD": "CIBIC",
    "PARAM": "CIBIC+ Score",
    "PARAMN": 1,
    "AVAL": 4,
    "AVALC": "4",
    "BASE": null,
    "CHG": null,
    "AVISIT": "Week 8",
    "AVISITN": 8,
    "ADT": "2013-11-24",
    "ADY": 50,
    "ABLFL": null,
    "ANL01FL": "Y",
    "ANL02FL": "Y",
    "DTYPE": null
  },
  {
    "STUDYID": "CDISCPILOT01",
    "USUBJID": "01-704-1065",
    "SITEID": "704",
    "SITEGR1": "704",
    "TRT01P": "Xanomeline High Dose",
    "TRT01A": "Xanomeline High Dose",
    "TRT01PN": 2,
    "TRTP": "Xanomeline High Dose",
    "TRTA": "Xanomeline High Dose",
    "TRTSDT": "2013-10-24",
    "TRTEDT": "2013-12-22",
    "SAFFL": "Y",
    "ITTFL": "Y",
    "EFFFL": "Y",
    "PARAMCD": "CIBIC",
    "PARAM": "CIBIC+ Score",
    "PARAMN": 1,
    "AVAL": 5,
    "AVALC": "5",
    "BASE": null,
    "CHG": null,
    "AVISIT": "Week 16",
    "AVISITN": 16,
    "ADT": "2013-12-24",
    "ADY": 62,
    "ABLFL": null,
    "ANL01FL": "Y",
    "ANL02FL": "Y",
    "DTYPE": null
  },
  {
    "STUDYID": "CDISCPILOT01",
    "USUBJID": "01-704-1120",
    "SITEID": "704",
    "SITEGR1": "704",
    "TRT01P": "Xanomeline Low Dose",
    "TRT01A": "Xanomeline Low Dose",
    "TRT01PN": 1,
    "TRTP": "Xanomeline Low Dose",
    "TRTA": "Xanomeline Low Dose",
    "TRTSDT": "2013-12-02",
    "TRTEDT": "2014-02-01",
    "SAFFL": "Y",
    "ITTFL": "Y",
    "EFFFL": "Y",
    "PARAMCD": "CIBIC",
    "PARAM": "CIBIC+ Score",
    "PARAMN": 1,
    "AVAL": 4,
    "AVALC": "4",
    "BASE": null,
    "CHG": null,
    "AVISIT": "Week 16",
    "AVISITN": 16,
    "ADT": "2014-02-03",
    "ADY": 64,
    "ABLFL": null,
    "ANL01FL": "Y",
    "ANL02FL": "Y",
    "DTYPE": null
  },
  {
    "STUDYID": "CDISCPILOT01",
    "USUBJID": "01-705-1310",
    "SITEID": "705",
    "SITEGR1": "705",
    "TRT01P": "Xanomeline High Dose",
    "TRT01A": "Xanomeline High Dose",
    "TRT01PN": 2,
    "TRTP": "Xanomeline High Dose",
    "TRTA": "Xanomeline High Dose",
    "TRTSDT": "2013-11-02",
    "TRTEDT": "2014-01-23",
    "SAFFL": "Y",
    "ITTFL": "Y",
    "EFFFL": "Y",
    "PARAMCD": "CIBIC",
    "PARAM": "CIBIC+ Score",
    "PARAMN": 1,
    "AVAL": 3,
    "AVALC": "3",
    "BASE": null,
    "CHG": null,
    "AVISIT": "Week 16",
    "AVISITN": 16,
    "ADT": "2014-01-23",
    "ADY": 83,
    "ABLFL": null,
    "ANL01FL": "Y",
    "ANL02FL": "Y",
    "DTYPE": null
  },
  {
    "STUDYID": "CDISCPILOT01",
    "USUBJID": "01-705-1393",
    "SITEID": "705",
    "SITEGR1": "705",
    "TRT01P": "Xanomeline Low Dose",
    "TRT01A": "Xanomeline Low Dose",
    "TRT01PN": 1,
    "TRTP": "Xanomeline Low Dose",
    "TRTA": "Xanomeline Low Dose",
    "TRTSDT": "2012-09-07",
    "TRTEDT": "2013-02-01",
    "SAFFL": "Y",
    "ITTFL": "Y",
    "EFFFL": "Y",
    "PARAMCD": "CIBIC",
    "PARAM": "CIBIC+ Score",
    "PARAMN": 1,
    "AVAL": 5,
    "AVALC": "5",
    "BASE": null,
    "CHG": null,
    "AVISIT": "Week 24",
    "AVISITN": 24,
    "ADT": "2013-02-20",
    "ADY": 167,
    "ABLFL": null,
    "ANL01FL": "Y",
    "ANL02FL": "Y",
    "DTYPE": null
  },
  {
    "STUDYID": "CDISCPILOT01",
    "USUBJID": "01-706-1049",
    "SITEID": "706",
    "SITEGR1": "706",
    "TRT01P": "Xanomeline High Dose",
    "TRT01A": "Xanomeline High Dose",
    "TRT01PN": 2,
    "TRTP": "Xanomeline High Dose",
    "TRTA": "Xanomeline High Dose",
    "TRTSDT": "2013-05-14",
    "TRTEDT": "2013-06-18",
    "SAFFL": "Y",
    "ITTFL": "Y",
    "EFFFL": "Y",
    "PARAMCD": "CIBIC",
    "PARAM": "CIBIC+ Score",
    "PARAMN": 1,
    "AVAL": 4,
    "AVALC": "4",
    "BASE": null,
    "CHG": null,
    "AVISIT": "Week 8",
    "AVISITN": 8,
    "ADT": "2013-06-25",
    "ADY": 43,
    "ABLFL": null,
    "ANL01FL": "Y",
    "ANL02FL": "Y",
    "DTYPE": null
  },
  {
    "STUDYID": "CDISCPILOT01",
    "USUBJID": "01-708-1158",
    "SITEID": "708",
    "SITEGR1": "708",
    "TRT01P": "Placebo",
    "TRT01A": "Placebo",
    "TRT01PN": 0,
    "TRTP": "Placebo",
    "TRTA": "Placebo",
    "TRTSDT": "2014-02-08",
    "TRTEDT": "2014-03-21",
    "SAFFL": "Y",
    "ITTFL": "Y",
    "EFFFL": "Y",
    "PARAMCD": "CIBIC",
    "PARAM": "CIBIC+ Score",
    "PARAMN": 1,
    "AVAL": 5,
    "AVALC": "5",
    "BASE": null,
    "CHG": null,
    "AVISIT": "Week 8",
    "AVISITN": 8,
    "ADT": "2014-03-22",
    "ADY": 43,
    "ABLFL": null,
    "ANL01FL": "Y",
    "ANL02FL": "Y",
    "DTYPE": null
  },
  {
    "STUDYID": "CDISCPILOT01",
    "USUBJID": "01-708-1178",
    "SITEID": "708",
    "SITEGR1": "708",
    "TRT01P": "Xanomeline High Dose",
    "TRT01A": "Xanomeline High Dose",
    "TRT01PN": 2,
    "TRTP": "Xanomeline High Dose",
    "TRTA": "Xanomeline High Dose",
    "TRTSDT": "2013-12-29",
    "TRTEDT": "2014-04-06",
    "SAFFL": "Y",
    "ITTFL": "Y",
    "EFFFL": "Y",
    "PARAMCD": "CIBIC",
    "PARAM": "CIBIC+ Score",
    "PARAMN": 1,
    "AVAL": 3,
    "AVALC": "3",
    "BASE": null,
    "CHG": null,
    "AVISIT": "Week 16",
    "AVISITN": 16,
    "ADT": "2014-04-06",
    "ADY": 99,
    "ABLFL": null,
    "ANL01FL": "Y",
    "ANL02FL": "Y",
    "DTYPE": null
  },
  {
    "STUDYID": "CDISCPILOT01",
    "USUBJID": "01-708-1216",
    "SITEID": "708",
    "SITEGR1": "708",
    "TRT01P": "Xanomeline High Dose",
    "TRT01A": "Xanomeline High Dose",
    "TRT01PN": 2,
    "TRTP": "Xanomeline High Dose",
    "TRTA": "Xanomeline High Dose",
    "TRTSDT": "2012-10-24",
    "TRTEDT": "2012-11-29",
    "SAFFL": "Y",
    "ITTFL": "Y",
    "EFFFL": "Y",
    "PARAMCD": "CIBIC",
    "PARAM": "CIBIC+ Score",
    "PARAMN": 1,
    "AVAL": 3,
    "AVALC": "3",
    "BASE": null,
    "CHG": null,
    "AVISIT": "Week 8",
    "AVISITN": 8,
    "ADT": "2012-12-06",
    "ADY": 44,
    "ABLFL": null,
    "ANL01FL": "Y",
    "ANL02FL": "Y",
    "DTYPE": null
  },
  {
    "STUDYID": "CDISCPILOT01",
    "USUBJID": "01-708-1347",
    "SITEID": "708",
    "SITEGR1": "708",
    "TRT01P": "Xanomeline High Dose",
    "TRT01A": "Xanomeline High Dose",
    "TRT01PN": 2,
    "TRTP": "Xanomeline High Dose",
    "TRTA": "Xanomeline High Dose",
    "TRTSDT": "2013-04-20",
    "TRTEDT": "2013-06-18",
    "SAFFL": "Y",
    "ITTFL": "Y",
    "EFFFL": "Y",
    "PARAMCD": "CIBIC",
    "PARAM": "CIBIC+ Score",
    "PARAMN": 1,
    "AVAL": 4,
    "AVALC": "4",
    "BASE": null,
    "CHG": null,
    "AVISIT": "Week 16",
    "AVISITN": 16,
    "ADT": "2013-06-18",
    "ADY": 60,
    "ABLFL": null,
    "ANL01FL": "Y",
    "ANL02FL": "Y",
    "DTYPE": null
  },
  {
    "STUDYID": "CDISCPILOT01",
    "USUBJID": "01-708-1378",
    "SITEID": "708",
    "SITEGR1": "708",
    "TRT01P": "Placebo",
    "TRT01A": "Placebo",
    "TRT01PN": 0,
    "TRTP": "Placebo",
    "TRTA": "Placebo",
    "TRTSDT": "2013-09-03",
    "TRTEDT": "2014-01-28",
    "SAFFL": "Y",
    "ITTFL": "Y",
    "EFFFL": "Y",
    "PARAMCD": "CIBIC",
    "PARAM": "CIBIC+ Score",
    "PARAMN": 1,
    "AVAL": 3,
    "AVALC": "3",
    "BASE": null,
    "CHG": null,
    "AVISIT": "Week 24",
    "AVISITN": 24,
    "ADT": "2014-01-28",
    "ADY": 148,
    "ABLFL": null,
    "ANL01FL": "Y",
    "ANL02FL": "Y",
    "DTYPE": null
  },
  {
    "STUDYID": "CDISCPILOT01",
    "USUBJID": "01-709-1102",
    "SITEID": "709",
    "SITEGR1": "709",
    "TRT01P": "Xanomeline Low Dose",
    "TRT01A": "Xanomeline Low Dose",
    "TRT01PN": 1,
    "TRTP": "Xanomeline Low Dose",
    "TRTA": "Xanomeline Low Dose",
    "TRTSDT": "2013-01-15",
    "TRTEDT": "2013-03-27",
    "SAFFL": "Y",
    "ITTFL": "Y",
    "EFFFL": "Y",
    "PARAMCD": "CIBIC",
    "PARAM": "CIBIC+ Score",
    "PARAMN": 1,
    "AVAL": 5,
    "AVALC": "5",
    "BASE": null,
    "CHG": null,
    "AVISIT": "Week 16",
    "AVISITN": 16,
    "ADT": "2013-03-31",
    "ADY": 76,
    "ABLFL": null,
    "ANL01FL": "Y",
    "ANL02FL": "Y",
    "DTYPE": null
  },
  {
    "STUDYID": "CDISCPILOT01",
    "USUBJID": "01-709-1238",
    "SITEID": "709",
    "SITEGR1": "709",
    "TRT01P": "Xanomeline High Dose",
    "TRT01A": "Xanomeline High Dose",
    "TRT01PN": 2,
    "TRTP": "Xanomeline High Dose",
    "TRTA": "Xanomeline High Dose",
    "TRTSDT": "2013-05-15",
    "TRTEDT": "2013-08-06",
    "SAFFL": "Y",
    "ITTFL": "Y",
    "EFFFL": "Y",
    "PARAMCD": "CIBIC",
    "PARAM": "CIBIC+ Score",
    "PARAMN": 1,
    "AVAL": 4,
    "AVALC": "4",
    "BASE": null,
    "CHG": null,
    "AVISIT": "Week 16",
    "AVISITN": 16,
    "ADT": "2013-08-07",
    "ADY": 85,
    "ABLFL": null,
    "ANL01FL": "Y",
    "ANL02FL": "Y",
    "DTYPE": null
  },
  {
    "STUDYID": "CDISCPILOT01",
    "USUBJID": "01-709-1259",
    "SITEID": "709",
    "SITEGR1": "709",
    "TRT01P": "Placebo",
    "TRT01A": "Placebo",
    "TRT01PN": 0,
    "TRTP": "Placebo",
    "TRTA": "Placebo",
    "TRTSDT": "2013-01-26",
    "TRTEDT": "2013-06-13",
    "SAFFL": "Y",
    "ITTFL": "Y",
    "EFFFL": "Y",
    "PARAMCD": "CIBIC",
    "PARAM": "CIBIC+ Score",
    "PARAMN": 1,
    "AVAL": 5,
    "AVALC": "5",
    "BASE": null,
    "CHG": null,
    "AVISIT": "Week 24",
    "AVISITN": 24,
    "ADT": "2013-06-13",
    "ADY": 139,
    "ABLFL": null,
    "ANL01FL": "Y",
    "ANL02FL": "Y",
    "DTYPE": null
  },
  {
    "STUDYID": "CDISCPILOT01",
    "USUBJID": "01-709-1285",
    "SITEID": "709",
    "SITEGR1": "709",
    "TRT01P": "Xanomeline Low Dose",
    "TRT01A": "Xanomeline Low Dose",
    "TRT01PN": 1,
    "TRTP": "Xanomeline Low Dose",
    "TRTA": "Xanomeline Low Dose",
    "TRTSDT": "2013-03-24",
    "TRTEDT": "2013-05-23",
    "SAFFL": "Y",
    "ITTFL": "Y",
    "EFFFL": "Y",
    "PARAMCD": "CIBIC",
    "PARAM": "CIBIC+ Score",
    "PARAMN": 1,
    "AVAL": 3,
    "AVALC": "3",
    "BASE": null,
    "CHG": null,
    "AVISIT": "Week 16",
    "AVISITN": 16,
    "ADT": "2013-05-31",
    "ADY": 69,
    "ABLFL": null,
    "ANL01FL": "Y",
    "ANL02FL": "Y",
    "DTYPE": null
  },
  {
    "STUDYID": "CDISCPILOT01",
    "USUBJID": "01-709-1306",
    "SITEID": "709",
    "SITEGR1": "709",
    "TRT01P": "Placebo",
    "TRT01A": "Placebo",
    "TRT01PN": 0,
    "TRTP": "Placebo",
    "TRTA": "Placebo",
    "TRTSDT": "2014-02-03",
    "TRTEDT": "2014-06-16",
    "SAFFL": "Y",
    "ITTFL": "Y",
    "EFFFL": "Y",
    "PARAMCD": "CIBIC",
    "PARAM": "CIBIC+ Score",
    "PARAMN": 1,
    "AVAL": 5,
    "AVALC": "5",
    "BASE": null,
    "CHG": null,
    "AVISIT": "Week 24",
    "AVISITN": 24,
    "ADT": "2014-06-25",
    "ADY": 143,
    "ABLFL": null,
    "ANL01FL": "Y",
    "ANL02FL": "Y",
    "DTYPE": null
  },
  {
    "STUDYID": "CDISCPILOT01",
    "USUBJID": "01-710-1045",
    "SITEID": "710",
    "SITEGR1": "710",
    "TRT01P": "Xanomeline Low Dose",
    "TRT01A": "Xanomeline Low Dose",
    "TRT01PN": 1,
    "TRTP": "Xanomeline Low Dose",
    "TRTA": "Xanomeline Low Dose",
    "TRTSDT": "2013-06-03",
    "TRTEDT": "2013-08-13",
    "SAFFL": "Y",
    "ITTFL": "Y",
    "EFFFL": "Y",
    "PARAMCD": "CIBIC",
    "PARAM": "CIBIC+ Score",
    "PARAMN": 1,
    "AVAL": 5,
    "AVALC": "5",
    "BASE": null,
    "CHG": null,
    "AVISIT": "Week 16",
    "AVISITN": 16,
    "ADT": "2013-08-17",
    "ADY": 76,
    "ABLFL": null,
    "ANL01FL": "Y",
    "ANL02FL": "Y",
    "DTYPE": null
  },
  {
    "STUDYID": "CDISCPILOT01",
    "USUBJID": "01-710-1154",
    "SITEID": "710",
    "SITEGR1": "710",
    "TRT01P": "Xanomeline Low Dose",
    "TRT01A": "Xanomeline Low Dose",
    "TRT01PN": 1,
    "TRTP": "Xanomeline Low Dose",
    "TRTA": "Xanomeline Low Dose",
    "TRTSDT": "2014-03-29",
    "TRTEDT": "2014-04-27",
    "SAFFL": "Y",
    "ITTFL": "Y",
    "EFFFL": "Y",
    "PARAMCD": "CIBIC",
    "PARAM": "CIBIC+ Score",
    "PARAMN": 1,
    "AVAL": 4,
    "AVALC": "4",
    "BASE": null,
    "CHG": null,
    "AVISIT": "Week 8",
    "AVISITN": 8,
    "ADT": "2014-05-09",
    "ADY": 42,
    "ABLFL": null,
    "ANL01FL": "Y",
    "ANL02FL": "Y",
    "DTYPE": null
  },
  {
    "STUDYID": "CDISCPILOT01",
    "USUBJID": "01-710-1264",
    "SITEID": "710",
    "SITEGR1": "710",
    "TRT01P": "Placebo",
    "TRT01A": "Placebo",
    "TRT01PN": 0,
    "TRTP": "Placebo",
    "TRTA": "Placebo",
    "TRTSDT": "2013-06-13",
    "TRTEDT": "2013-10-11",
    "SAFFL": "Y",
    "ITTFL": "Y",
    "EFFFL": "Y",
    "PARAMCD": "CIBIC",
    "PARAM": "CIBIC+ Score",
    "PARAMN": 1,
    "AVAL": 4,
    "AVALC": "4",
    "BASE": null,
    "CHG": null,
    "AVISIT": "Week 24",
    "AVISITN": 24,
    "ADT": "2013-10-12",
    "ADY": 122,
    "ABLFL": null,
    "ANL01FL": "Y",
    "ANL02FL": "Y",
    "DTYPE": null
  },
  {
    "STUDYID": "CDISCPILOT01",
    "USUBJID": "01-710-1278",
    "SITEID": "710",
    "SITEGR1": "710",
    "TRT01P": "Xanomeline High Dose",
    "TRT01A": "Xanomeline High Dose",
    "TRT01PN": 2,
    "TRTP": "Xanomeline High Dose",
    "TRTA": "Xanomeline High Dose",
    "TRTSDT": "2012-12-24",
    "TRTEDT": "2013-02-26",
    "SAFFL": "Y",
    "ITTFL": "Y",
    "EFFFL": "Y",
    "PARAMCD": "CIBIC",
    "PARAM": "CIBIC+ Score",
    "PARAMN": 1,
    "AVAL": 3,
    "AVALC": "3",
    "BASE": null,
    "CHG": null,
    "AVISIT": "Week 16",
    "AVISITN": 16,
    "ADT": "2013-03-03",
    "ADY": 70,
    "ABLFL": null,
    "ANL01FL": "Y",
    "ANL02FL": "Y",
    "DTYPE": null
  },
  {
    "STUDYID": "CDISCPILOT01",
    "USUBJID": "01-710-1300",
    "SITEID": "710",
    "SITEGR1": "710",
    "TRT01P": "Xanomeline Low Dose",
    "TRT01A": "Xanomeline Low Dose",
    "TRT01PN": 1,
    "TRTP": "Xanomeline Low Dose",
    "TRTA": "Xanomeline Low Dose",
    "TRTSDT": "2012-12-15",
    "TRTEDT": "2013-02-15",
    "SAFFL": "Y",
    "ITTFL": "Y",
    "EFFFL": "Y",
    "PARAMCD": "CIBIC",
    "PARAM": "CIBIC+ Score",
    "PARAMN": 1,
    "AVAL": 4,
    "AVALC": "4",
    "BASE": null,
    "CHG": null,
    "AVISIT": "Week 16",
    "AVISITN": 16,
    "ADT": "2013-02-19",
    "ADY": 67,
    "ABLFL": null,
    "ANL01FL": "Y",
    "ANL02FL": "Y",
    "DTYPE": null
  },
  {
    "STUDYID": "CDISCPILOT01",
    "USUBJID": "01-710-1315",
    "SITEID": "710",
    "SITEGR1": "710",
    "TRT01P": "Placebo",
    "TRT01A": "Placebo",
    "TRT01PN": 0,
    "TRTP": "Placebo",
    "TRTA": "Placebo",
    "TRTSDT": "2013-02-27",
    "TRTEDT": "2013-07-06",
    "SAFFL": "Y",
    "ITTFL": "Y",
    "EFFFL": "Y",
    "PARAMCD": "CIBIC",
    "PARAM": "CIBIC+ Score",
    "PARAMN": 1,
    "AVAL": 4,
    "AVALC": "4",
    "BASE": null,
    "CHG": null,
    "AVISIT": "Week 24",
    "AVISITN": 24,
    "ADT": "2013-07-16",
    "ADY": 140,
    "ABLFL": null,
    "ANL01FL": "Y",
    "ANL02FL": "Y",
    "DTYPE": null
  },
  {
    "STUDYID": "CDISCPILOT01",
    "USUBJID": "01-711-1143",
    "SITEID": "711",
    "SITEGR1": "711",
    "TRT01P": "Xanomeline Low Dose",
    "TRT01A": "Xanomeline Low Dose",
    "TRT01PN": 1,
    "TRTP": "Xanomeline Low Dose",
    "TRTA": "Xanomeline Low Dose",
    "TRTSDT": "2013-04-03",
    "TRTEDT": "2013-05-30",
    "SAFFL": "Y",
    "ITTFL": "Y",
    "EFFFL": "Y",
    "PARAMCD": "CIBIC",
    "PARAM": "CIBIC+ Score",
    "PARAMN": 1,
    "AVAL": 3,
    "AVALC": "3",
    "BASE": null,
    "CHG": null,
    "AVISIT": "Week 16",
    "AVISITN": 16,
    "ADT": "2013-06-01",
    "ADY": 60,
    "ABLFL": null,
    "ANL01FL": "Y",
    "ANL02FL": "Y",
    "DTYPE": null
  },
  {
    "STUDYID": "CDISCPILOT01",
    "USUBJID": "01-714-1068",
    "SITEID": "714",
    "SITEGR1": "714",
    "TRT01P": "Xanomeline Low Dose",
    "TRT01A": "Xanomeline Low Dose",
    "TRT01PN": 1,
    "TRTP": "Xanomeline Low Dose",
    "TRTA": "Xanomeline Low Dose",
    "TRTSDT": "2013-08-08",
    "TRTEDT": "2013-10-08",
    "SAFFL": "Y",
    "ITTFL": "Y",
    "EFFFL": "Y",
    "PARAMCD": "CIBIC",
    "PARAM": "CIBIC+ Score",
    "PARAMN": 1,
    "AVAL": 4,
    "AVALC": "4",
    "BASE": null,
    "CHG": null,
    "AVISIT": "Week 16",
    "AVISITN": 16,
    "ADT": "2013-10-16",
    "ADY": 70,
    "ABLFL": null,
    "ANL01FL": "Y",
    "ANL02FL": "Y",
    "DTYPE": null
  },
  {
    "STUDYID": "CDISCPILOT01",
    "USUBJID": "01-715-1107",
    "SITEID": "715",
    "SITEGR1": "715",
    "TRT01P": "Xanomeline Low Dose",
    "TRT01A": "Xanomeline Low Dose",
    "TRT01PN": 1,
    "TRTP": "Xanomeline Low Dose",
    "TRTA": "Xanomeline Low Dose",
    "TRTSDT": "2013-02-26",
    "TRTEDT": "2013-05-07",
    "SAFFL": "Y",
    "ITTFL": "Y",
    "EFFFL": "Y",
    "PARAMCD": "CIBIC",
    "PARAM": "CIBIC+ Score",
    "PARAMN": 1,
    "AVAL": 4,
    "AVALC": "4",
    "BASE": null,
    "CHG": null,
    "AVISIT": "Week 16",
    "AVISITN": 16,
    "ADT": "2013-05-13",
    "ADY": 77,
    "ABLFL": null,
    "ANL01FL": "Y",
    "ANL02FL": "Y",
    "DTYPE": null
  },
  {
    "STUDYID": "CDISCPILOT01",
    "USUBJID": "01-715-1321",
    "SITEID": "715",
    "SITEGR1": "715",
    "TRT01P": "Xanomeline High Dose",
    "TRT01A": "Xanomeline High Dose",
    "TRT01PN": 2,
    "TRTP": "Xanomeline High Dose",
    "TRTA": "Xanomeline High Dose",
    "TRTSDT": "2014-02-11",
    "TRTEDT": "2014-04-21",
    "SAFFL": "Y",
    "ITTFL": "Y",
    "EFFFL": "Y",
    "PARAMCD": "CIBIC",
    "PARAM": "CIBIC+ Score",
    "PARAMN": 1,
    "AVAL": 5,
    "AVALC": "5",
    "BASE": null,
    "CHG": null,
    "AVISIT": "Week 16",
    "AVISITN": 16,
    "ADT": "2014-04-22",
    "ADY": 71,
    "ABLFL": null,
    "ANL01FL": "Y",
    "ANL02FL": "Y",
    "DTYPE": null
  },
  {
    "STUDYID": "CDISCPILOT01",
    "USUBJID": "01-716-1094",
    "SITEID": "716",
    "SITEGR1": "716",
    "TRT01P": "Xanomeline Low Dose",
    "TRT01A": "Xanomeline Low Dose",
    "TRT01PN": 1,
    "TRTP": "Xanomeline Low Dose",
    "TRTA": "Xanomeline Low Dose",
    "TRTSDT": "2012-12-19",
    "TRTEDT": "2013-01-24",
    "SAFFL": "Y",
    "ITTFL": "Y",
    "EFFFL": "Y",
    "PARAMCD": "CIBIC",
    "PARAM": "CIBIC+ Score",
    "PARAMN": 1,
    "AVAL": 2,
    "AVALC": "2",
    "BASE": null,
    "CHG": null,
    "AVISIT": "Week 8",
    "AVISITN": 8,
    "ADT": "2013-01-26",
    "ADY": 39,
    "ABLFL": null,
    "ANL01FL": "Y",
    "ANL02FL": "Y",
    "DTYPE": null
  },
  {
    "STUDYID": "CDISCPILOT01",
    "USUBJID": "01-716-1189",
    "SITEID": "716",
    "SITEGR1": "716",
    "TRT01P": "Xanomeline High Dose",
    "TRT01A": "Xanomeline High Dose",
    "TRT01PN": 2,
    "TRTP": "Xanomeline High Dose",
    "TRTA": "Xanomeline High Dose",
    "TRTSDT": "2012-10-09",
    "TRTEDT": "2013-02-27",
    "SAFFL": "Y",
    "ITTFL": "Y",
    "EFFFL": "Y",
    "PARAMCD": "CIBIC",
    "PARAM": "CIBIC+ Score",
    "PARAMN": 1,
    "AVAL": 5,
    "AVALC": "5",
    "BASE": null,
    "CHG": null,
    "AVISIT": "Week 24",
    "AVISITN": 24,
    "ADT": "2013-03-03",
    "ADY": 146,
    "ABLFL": null,
    "ANL01FL": "Y",
    "ANL02FL": "Y",
    "DTYPE": null
  },
  {
    "STUDYID": "CDISCPILOT01",
    "USUBJID": "01-716-1229",
    "SITEID": "716",
    "SITEGR1": "716",
    "TRT01P": "Xanomeline High Dose",
    "TRT01A": "Xanomeline High Dose",
    "TRT01PN": 2,
    "TRTP": "Xanomeline High Dose",
    "TRTA": "Xanomeline High Dose",
    "TRTSDT": "2013-02-20",
    "TRTEDT": "2013-03-31",
    "SAFFL": "Y",
    "ITTFL": "Y",
    "EFFFL": "Y",
    "PARAMCD": "CIBIC",
    "PARAM": "CIBIC+ Score",
    "PARAMN": 1,
    "AVAL": 4,
    "AVALC": "4",
    "BASE": null,
    "CHG": null,
    "AVISIT": "Week 8",
    "AVISITN": 8,
    "ADT": "2013-04-02",
    "ADY": 42,
    "ABLFL": null,
    "ANL01FL": "Y",
    "ANL02FL": "Y",
    "DTYPE": null
  },
  {
    "STUDYID": "CDISCPILOT01",
    "USUBJID": "01-716-1298",
    "SITEID": "716",
    "SITEGR1": "716",
    "TRT01P": "Xanomeline Low Dose",
    "TRT01A": "Xanomeline Low Dose",
    "TRT01PN": 1,
    "TRTP": "Xanomeline Low Dose",
    "TRTA": "Xanomeline Low Dose",
    "TRTSDT": "2013-04-08",
    "TRTEDT": "2013-06-28",
    "SAFFL": "Y",
    "ITTFL": "Y",
    "EFFFL": "Y",
    "PARAMCD": "CIBIC",
    "PARAM": "CIBIC+ Score",
    "PARAMN": 1,
    "AVAL": 4,
    "AVALC": "4",
    "BASE": null,
    "CHG": null,
    "AVISIT": "Week 16",
    "AVISITN": 16,
    "ADT": "2013-07-06",
    "ADY": 90,
    "ABLFL": null,
    "ANL01FL": "Y",
    "ANL02FL": "Y",
    "DTYPE": null
  },
  {
    "STUDYID": "CDISCPILOT01",
    "USUBJID": "01-716-1308",
    "SITEID": "716",
    "SITEGR1": "716",
    "TRT01P": "Placebo",
    "TRT01A": "Placebo",
    "TRT01PN": 0,
    "TRTP": "Placebo",
    "TRTA": "Placebo",
    "TRTSDT": "2013-08-28",
    "TRTEDT": "2013-10-07",
    "SAFFL": "Y",
    "ITTFL": "Y",
    "EFFFL": "Y",
    "PARAMCD": "CIBIC",
    "PARAM": "CIBIC+ Score",
    "PARAMN": 1,
    "AVAL": 6,
    "AVALC": "6",
    "BASE": null,
    "CHG": null,
    "AVISIT": "Week 8",
    "AVISITN": 8,
    "ADT": "2013-10-07",
    "ADY": 41,
    "ABLFL": null,
    "ANL01FL": "Y",
    "ANL02FL": "Y",
    "DTYPE": null
  },
  {
    "STUDYID": "CDISCPILOT01",
    "USUBJID": "01-716-1373",
    "SITEID": "716",
    "SITEGR1": "716",
    "TRT01P": "Xanomeline High Dose",
    "TRT01A": "Xanomeline High Dose",
    "TRT01PN": 2,
    "TRTP": "Xanomeline High Dose",
    "TRTA": "Xanomeline High Dose",
    "TRTSDT": "2012-12-14",
    "TRTEDT": "2013-02-27",
    "SAFFL": "Y",
    "ITTFL": "Y",
    "EFFFL": "Y",
    "PARAMCD": "CIBIC",
    "PARAM": "CIBIC+ Score",
    "PARAMN": 1,
    "AVAL": 3,
    "AVALC": "3",
    "BASE": null,
    "CHG": null,
    "AVISIT": "Week 16",
    "AVISITN": 16,
    "ADT": "2013-02-28",
    "ADY": 77,
    "ABLFL": null,
    "ANL01FL": "Y",
    "ANL02FL": "Y",
    "DTYPE": null
  },
  {
    "STUDYID": "CDISCPILOT01",
    "USUBJID": "01-718-1079",
    "SITEID": "718",
    "SITEGR1": "718",
    "TRT01P": "Xanomeline Low Dose",
    "TRT01A": "Xanomeline Low Dose",
    "TRT01PN": 1,
    "TRTP": "Xanomeline Low Dose",
    "TRTA": "Xanomeline Low Dose",
    "TRTSDT": "2012-09-19",
    "TRTEDT": "2012-10-31",
    "SAFFL": "Y",
    "ITTFL": "Y",
    "EFFFL": "Y",
    "PARAMCD": "CIBIC",
    "PARAM": "CIBIC+ Score",
    "PARAMN": 1,
    "AVAL": 4,
    "AVALC": "4",
    "BASE": null,
    "CHG": null,
    "AVISIT": "Week 8",
    "AVISITN": 8,
    "ADT": "2012-11-06",
    "ADY": 49,
    "ABLFL": null,
    "ANL01FL": "Y",
    "ANL02FL": "Y",
    "DTYPE": null
  },
  {
    "STUDYID": "CDISCPILOT01",
    "USUBJID": "01-718-1172",
    "SITEID": "718",
    "SITEGR1": "718",
    "TRT01P": "Placebo",
    "TRT01A": "Placebo",
    "TRT01PN": 0,
    "TRTP": "Placebo",
    "TRTA": "Placebo",
    "TRTSDT": "2013-09-21",
    "TRTEDT": "2013-11-29",
    "SAFFL": "Y",
    "ITTFL": "Y",
    "EFFFL": "Y",
    "PARAMCD": "CIBIC",
    "PARAM": "CIBIC+ Score",
    "PARAMN": 1,
    "AVAL": 4,
    "AVALC": "4",
    "BASE": null,
    "CHG": null,
    "AVISIT": "Week 16",
    "AVISITN": 16,
    "ADT": "2013-11-29",
    "ADY": 70,
    "ABLFL": null,
    "ANL01FL": "Y",
    "ANL02FL": "Y",
    "DTYPE": null
  },
  {
    "STUDYID": "CDISCPILOT01",
    "USUBJID": "01-718-1250",
    "SITEID": "718",
    "SITEGR1": "718",
    "TRT01P": "Xanomeline Low Dose",
    "TRT01A": "Xanomeline Low Dose",
    "TRT01PN": 1,
    "TRTP": "Xanomeline Low Dose",
    "TRTA": "Xanomeline Low Dose",
    "TRTSDT": "2013-09-21",
    "TRTEDT": "2014-01-31",
    "SAFFL": "Y",
    "ITTFL": "Y",
    "EFFFL": "Y",
    "PARAMCD": "CIBIC",
    "PARAM": "CIBIC+ Score",
    "PARAMN": 1,
    "AVAL": 4,
    "AVALC": "4",
    "BASE": null,
    "CHG": null,
    "AVISIT": "Week 24",
    "AVISITN": 24,
    "ADT": "2014-02-08",
    "ADY": 141,
    "ABLFL": null,
    "ANL01FL": "Y",
    "ANL02FL": "Y",
    "DTYPE": null
  },
  {
    "STUDYID": "CDISCPILOT01",
    "USUBJID": "01-718-1328",
    "SITEID": "718",
    "SITEGR1": "718",
    "TRT01P": "Xanomeline High Dose",
    "TRT01A": "Xanomeline High Dose",
    "TRT01PN": 2,
    "TRTP": "Xanomeline High Dose",
    "TRTA": "Xanomeline High Dose",
    "TRTSDT": "2013-02-01",
    "TRTEDT": "2013-04-18",
    "SAFFL": "Y",
    "ITTFL": "Y",
    "EFFFL": "Y",
    "PARAMCD": "CIBIC",
    "PARAM": "CIBIC+ Score",
    "PARAMN": 1,
    "AVAL": 5,
    "AVALC": "5",
    "BASE": null,
    "CHG": null,
    "AVISIT": "Week 16",
    "AVISITN": 16,
    "ADT": "2013-05-01",
    "ADY": 90,
    "ABLFL": null,
    "ANL01FL": "Y",
    "ANL02FL": "Y",
    "DTYPE": null
  },
  {
    "STUDYID": "CDISCPILOT01",
    "USUBJID": "01-718-1371",
    "SITEID": "718",
    "SITEGR1": "718",
    "TRT01P": "Xanomeline High Dose",
    "TRT01A": "Xanomeline High Dose",
    "TRT01PN": 2,
    "TRTP": "Xanomeline High Dose",
    "TRTA": "Xanomeline High Dose",
    "TRTSDT": "2013-04-26",
    "TRTEDT": "2013-08-01",
    "SAFFL": "Y",
    "ITTFL": "Y",
    "EFFFL": "Y",
    "PARAMCD": "CIBIC",
    "PARAM": "CIBIC+ Score",
    "PARAMN": 1,
    "AVAL": 4,
    "AVALC": "4",
    "BASE": null,
    "CHG": null,
    "AVISIT": "Week 16",
    "AVISITN": 16,
    "ADT": "2013-08-08",
    "ADY": 105,
    "ABLFL": null,
    "ANL01FL": "Y",
    "ANL02FL": "Y",
    "DTYPE": null
  },
  {
    "STUDYID": "CDISCPILOT01",
    "USUBJID": "01-701-1146",
    "SITEID": "701",
    "SITEGR1": "701",
    "TRT01P": "Xanomeline High Dose",
    "TRT01A": "Xanomeline High Dose",
    "TRT01PN": 2,
    "TRTP": "Xanomeline High Dose",
    "TRTA": "Xanomeline High Dose",
    "TRTSDT": "2013-05-20",
    "TRTEDT": "2013-06-26",
    "SAFFL": "Y",
    "ITTFL": "Y",
    "EFFFL": "Y",
    "PARAMCD": "CIBIC",
    "PARAM": "CIBIC+ Score",
    "PARAMN": 1,
    "AVAL": 4,
    "AVALC": "4",
    "BASE": null,
    "CHG": null,
    "AVISIT": "Week 16",
    "AVISITN": 16,
    "ADT": "2013-06-30",
    "ADY": 42,
    "ABLFL": null,
    "ANL01FL": "Y",
    "ANL02FL": null,
    "DTYPE": "LOCF"
  },
  {
    "STUDYID": "CDISCPILOT01",
    "USUBJID": "01-701-1146",
    "SITEID": "701",
    "SITEGR1": "701",
    "TRT01P": "Xanomeline High Dose",
    "TRT01A": "Xanomeline High Dose",
    "TRT01PN": 2,
    "TRTP": "Xanomeline High Dose",
    "TRTA": "Xanomeline High Dose",
    "TRTSDT": "2013-05-20",
    "TRTEDT": "2013-06-26",
    "SAFFL": "Y",
    "ITTFL": "Y",
    "EFFFL": "Y",
    "PARAMCD": "CIBIC",
    "PARAM": "CIBIC+ Score",
    "PARAMN": 1,
    "AVAL": 4,
    "AVALC": "4",
    "BASE": null,
    "CHG": null,
    "AVISIT": "Week 24",
    "AVISITN": 24,
    "ADT": "2013-06-30",
    "ADY": 42,
    "ABLFL": null,
    "ANL01FL": "Y",
    "ANL02FL": null,
    "DTYPE": "LOCF"
  },
  {
    "STUDYID": "CDISCPILOT01",
    "USUBJID": "01-701-1180",
    "SITEID": "701",
    "SITEGR1": "701",
    "TRT01P": "Xanomeline High Dose",
    "TRT01A": "Xanomeline High Dose",
    "TRT01PN": 2,
    "TRTP": "Xanomeline High Dose",
    "TRTA": "Xanomeline High Dose",
    "TRTSDT": "2013-02-12",
    "TRTEDT": "2013-03-18",
    "SAFFL": "Y",
    "ITTFL": "Y",
    "EFFFL": "Y",
    "PARAMCD": "CIBIC",
    "PARAM": "CIBIC+ Score",
    "PARAMN": 1,
    "AVAL": 5,
    "AVALC": "5",
    "BASE": null,
    "CHG": null,
    "AVISIT": "Week 16",
    "AVISITN": 16,
    "ADT": "2013-03-23",
    "ADY": 40,
    "ABLFL": null,
    "ANL01FL": "Y",
    "ANL02FL": null,
    "DTYPE": "LOCF"
  },
  {
    "STUDYID": "CDISCPILOT01",
    "USUBJID": "01-701-1180",
    "SITEID": "701",
    "SITEGR1": "701",
    "TRT01P": "Xanomeline High Dose",
    "TRT01A": "Xanomeline High Dose",
    "TRT01PN": 2,
    "TRTP": "Xanomeline High Dose",
    "TRTA": "Xanomeline High Dose",
    "TRTSDT": "2013-02-12",
    "TRTEDT": "2013-03-18",
    "SAFFL": "Y",
    "ITTFL": "Y",
    "EFFFL": "Y",
    "PARAMCD": "CIBIC",
    "PARAM": "CIBIC+ Score",
    "PARAMN": 1,
    "AVAL": 5,
    "AVALC": "5",
    "BASE": null,
    "CHG": null,
    "AVISIT": "Week 24",
    "AVISITN": 24,
    "ADT": "2013-03-23",
    "ADY": 40,
    "ABLFL": null,
    "ANL01FL": "Y",
    "ANL02FL": null,
    "DTYPE": "LOCF"
  },
  {
    "STUDYID": "CDISCPILOT01",
    "USUBJID": "01-701-1188",
    "SITEID": "701",
    "SITEGR1": "701",
    "TRT01P": "Xanomeline Low Dose",
    "TRT01A": "Xanomeline Low Dose",
    "TRT01PN": 1,
    "TRTP": "Xanomeline Low Dose",
    "TRTA": "Xanomeline Low Dose",
    "TRTSDT": "2013-02-15",
    "TRTEDT": "2013-03-24",
    "SAFFL": "Y",
    "ITTFL": "Y",
    "EFFFL": "Y",
    "PARAMCD": "CIBIC",
    "PARAM": "CIBIC+ Score",
    "PARAMN": 1,
    "AVAL": 4,
    "AVALC": "4",
    "BASE": null,
    "CHG": null,
    "AVISIT": "Week 16",
    "AVISITN": 16,
    "ADT": "2013-03-25",
    "ADY": 39,
    "ABLFL": null,
    "ANL01FL": "Y",
    "ANL02FL": null,
    "DTYPE": "LOCF"
  },
  {
    "STUDYID": "CDISCPILOT01",
    "USUBJID": "01-701-1188",
    "SITEID": "701",
    "SITEGR1": "701",
    "TRT01P": "Xanomeline Low Dose",
    "TRT01A": "Xanomeline Low Dose",
    "TRT01PN": 1,
    "TRTP": "Xanomeline Low Dose",
    "TRTA": "Xanomeline Low Dose",
    "TRTSDT": "2013-02-15",
    "TRTEDT": "2013-03-24",
    "SAFFL": "Y",
    "ITTFL": "Y",
    "EFFFL": "Y",
    "PARAMCD": "CIBIC",
    "PARAM": "CIBIC+ Score",
    "PARAMN": 1,
    "AVAL": 4,
    "AVALC": "4",
    "BASE": null,
    "CHG": null,
    "AVISIT": "Week 24",
    "AVISITN": 24,
    "ADT": "2013-03-25",
    "ADY": 39,
    "ABLFL": null,
    "ANL01FL": "Y",
    "ANL02FL": null,
    "DTYPE": "LOCF"
  },
  {
    "STUDYID": "CDISCPILOT01",
    "USUBJID": "01-701-1294",
    "SITEID": "701",
    "SITEGR1": "701",
    "TRT01P": "Xanomeline Low Dose",
    "TRT01A": "Xanomeline Low Dose",
    "TRT01PN": 1,
    "TRTP": "Xanomeline Low Dose",
    "TRTA": "Xanomeline Low Dose",
    "TRTSDT": "2013-03-24",
    "TRTEDT": "2013-06-14",
    "SAFFL": "Y",
    "ITTFL": "Y",
    "EFFFL": "Y",
    "PARAMCD": "CIBIC",
    "PARAM": "CIBIC+ Score",
    "PARAMN": 1,
    "AVAL": 4,
    "AVALC": "4",
    "BASE": null,
    "CHG": null,
    "AVISIT": "Week 24",
    "AVISITN": 24,
    "ADT": "2013-06-14",
    "ADY": 83,
    "ABLFL": null,
    "ANL01FL": "Y",
    "ANL02FL": null,
    "DTYPE": "LOCF"
  },
  {
    "STUDYID": "CDISCPILOT01",
    "USUBJID": "01-701-1302",
    "SITEID": "701",
    "SITEGR1": "701",
    "TRT01P": "Xanomeline High Dose",
    "TRT01A": "Xanomeline High Dose",
    "TRT01PN": 2,
    "TRTP": "Xanomeline High Dose",
    "TRTA": "Xanomeline High Dose",
    "TRTSDT": "2013-08-29",
    "TRTEDT": "2013-11-05",
    "SAFFL": "Y",
    "ITTFL": "Y",
    "EFFFL": "Y",
    "PARAMCD": "CIBIC",
    "PARAM": "CIBIC+ Score",
    "PARAMN": 1,
    "AVAL": 5,
    "AVALC": "5",
    "BASE": null,
    "CHG": null,
    "AVISIT": "Week 24",
    "AVISITN": 24,
    "ADT": "2013-11-05",
    "ADY": 69,
    "ABLFL": null,
    "ANL01FL": "Y",
    "ANL02FL": null,
    "DTYPE": "LOCF"
  },
  {
    "STUDYID": "CDISCPILOT01",
    "USUBJID": "01-701-1429",
    "SITEID": "701",
    "SITEGR1": "701",
    "TRT01P": "Xanomeline Low Dose",
    "TRT01A": "Xanomeline Low Dose",
    "TRT01PN": 1,
    "TRTP": "Xanomeline Low Dose",
    "TRTA": "Xanomeline Low Dose",
    "TRTSDT": "2013-03-19",
    "TRTEDT": "2013-04-30",
    "SAFFL": "Y",
    "ITTFL": "Y",
    "EFFFL": "Y",
    "PARAMCD": "CIBIC",
    "PARAM": "CIBIC+ Score",
    "PARAMN": 1,
    "AVAL": 3,
    "AVALC": "3",
    "BASE": null,
    "CHG": null,
    "AVISIT": "Week 16",
    "AVISITN": 16,
    "ADT": "2013-04-30",
    "ADY": 43,
    "ABLFL": null,
    "ANL01FL": "Y",
    "ANL02FL": null,
    "DTYPE": "LOCF"
  },
  {
    "STUDYID": "CDISCPILOT01",
    "USUBJID": "01-701-1429",
    "SITEID": "701",
    "SITEGR1": "701",
    "TRT01P": "Xanomeline Low Dose",
    "TRT01A": "Xanomeline Low Dose",
    "TRT01PN": 1,
    "TRTP": "Xanomeline Low Dose",
    "TRTA": "Xanomeline Low Dose",
    "TRTSDT": "2013-03-19",
    "TRTEDT": "2013-04-30",
    "SAFFL": "Y",
    "ITTFL": "Y",
    "EFFFL": "Y",
    "PARAMCD": "CIBIC",
    "PARAM": "CIBIC+ Score",
    "PARAMN": 1,
    "AVAL": 3,
    "AVALC": "3",
    "BASE": null,
    "CHG": null,
    "AVISIT": "Week 24",
    "AVISITN": 24,
    "ADT": "2013-04-30",
    "ADY": 43,
    "ABLFL": null,
    "ANL01FL": "Y",
    "ANL02FL": null,
    "DTYPE": "LOCF"
  },
  {
    "STUDYID": "CDISCPILOT01",
    "USUBJID": "01-701-1444",
    "SITEID": "701",
    "SITEGR1": "701",
    "TRT01P": "Xanomeline High Dose",
    "TRT01A": "Xanomeline High Dose",
    "TRT01PN": 2,
    "TRTP": "Xanomeline High Dose",
    "TRTA": "Xanomeline High Dose",
    "TRTSDT": "2013-01-05",
    "TRTEDT": "2013-02-12",
    "SAFFL": "Y",
    "ITTFL": "Y",
    "EFFFL": "Y",
    "PARAMCD": "CIBIC",
    "PARAM": "CIBIC+ Score",
    "PARAMN": 1,
    "AVAL": 5,
    "AVALC": "5",
    "BASE": null,
    "CHG": null,
    "AVISIT": "Week 16",
    "AVISITN": 16,
    "ADT": "2013-02-13",
    "ADY": 40,
    "ABLFL": null,
    "ANL01FL": "Y",
    "ANL02FL": null,
    "DTYPE": "LOCF"
  },
  {
    "STUDYID": "CDISCPILOT01",
    "USUBJID": "01-701-1444",
    "SITEID": "701",
    "SITEGR1": "701",
    "TRT01P": "Xanomeline High Dose",
    "TRT01A": "Xanomeline High Dose",
    "TRT01PN": 2,
    "TRTP": "Xanomeline High Dose",
    "TRTA": "Xanomeline High Dose",
    "TRTSDT": "2013-01-05",
    "TRTEDT": "2013-02-12",
    "SAFFL": "Y",
    "ITTFL": "Y",
    "EFFFL": "Y",
    "PARAMCD": "CIBIC",
    "PARAM": "CIBIC+ Score",
    "PARAMN": 1,
    "AVAL": 5,
    "AVALC": "5",
    "BASE": null,
    "CHG": null,
    "AVISIT": "Week 24",
    "AVISITN": 24,
    "ADT": "2013-02-13",
    "ADY": 40,
    "ABLFL": null,
    "ANL01FL": "Y",
    "ANL02FL": null,
    "DTYPE": "LOCF"
  },
  {
    "STUDYID": "CDISCPILOT01",
    "USUBJID": "01-702-1082",
    "SITEID": "702",
    "SITEGR1": "900",
    "TRT01P": "Xanomeline Low Dose",
    "TRT01A": "Xanomeline Low Dose",
    "TRT01PN": 1,
    "TRTP": "Xanomeline Low Dose",
    "TRTA": "Xanomeline Low Dose",
    "TRTSDT": "2013-07-26",
    "TRTEDT": "2013-10-13",
    "SAFFL": "Y",
    "ITTFL": "Y",
    "EFFFL": "Y",
    "PARAMCD": "CIBIC",
    "PARAM": "CIBIC+ Score",
    "PARAMN": 1,
    "AVAL": 4,
    "AVALC": "4",
    "BASE": null,
    "CHG": null,
    "AVISIT": "Week 24",
    "AVISITN": 24,
    "ADT": "2013-11-17",
    "ADY": 115,
    "ABLFL": null,
    "ANL01FL": "Y",
    "ANL02FL": null,
    "DTYPE": "LOCF"
  },
  {
    "STUDYID": "CDISCPILOT01",
    "USUBJID": "01-703-1076",
    "SITEID": "703",
    "SITEGR1": "703",
    "TRT01P": "Xanomeline High Dose",
    "TRT01A": "Xanomeline High Dose",
    "TRT01PN": 2,
    "TRTP": "Xanomeline High Dose",
    "TRTA": "Xanomeline High Dose",
    "TRTSDT": "2013-10-25",
    "TRTEDT": "2013-12-24",
    "SAFFL": "Y",
    "ITTFL": "Y",
    "EFFFL": "Y",
    "PARAMCD": "CIBIC",
    "PARAM": "CIBIC+ Score",
    "PARAMN": 1,
    "AVAL": 3,
    "AVALC": "3",
    "BASE": null,
    "CHG": null,
    "AVISIT": "Week 24",
    "AVISITN": 24,
    "ADT": "2013-12-24",
    "ADY": 61,
    "ABLFL": null,
    "ANL01FL": "Y",
    "ANL02FL": null,
    "DTYPE": "LOCF"
  },
  {
    "STUDYID": "CDISCPILOT01",
    "USUBJID": "01-703-1335",
    "SITEID": "703",
    "SITEGR1": "703",
    "TRT01P": "Xanomeline High Dose",
    "TRT01A": "Xanomeline High Dose",
    "TRT01PN": 2,
    "TRTP": "Xanomeline High Dose",
    "TRTA": "Xanomeline High Dose",
    "TRTSDT": "2014-03-17",
    "TRTEDT": "2014-05-07",
    "SAFFL": "Y",
    "ITTFL": "Y",
    "EFFFL": "Y",
    "PARAMCD": "CIBIC",
    "PARAM": "CIBIC+ Score",
    "PARAMN": 1,
    "AVAL": 5,
    "AVALC": "5",
    "BASE": null,
    "CHG": null,
    "AVISIT": "Week 16",
    "AVISITN": 16,
    "ADT": "2014-05-24",
    "ADY": 69,
    "ABLFL": null,
    "ANL01FL": "Y",
    "ANL02FL": null,
    "DTYPE": "LOCF"
  },
  {
    "STUDYID": "CDISCPILOT01",
    "USUBJID": "01-703-1335",
    "SITEID": "703",
    "SITEGR1": "703",
    "TRT01P": "Xanomeline High Dose",
    "TRT01A": "Xanomeline High Dose",
    "TRT01PN": 2,
    "TRTP": "Xanomeline High Dose",
    "TRTA": "Xanomeline High Dose",
    "TRTSDT": "2014-03-17",
    "TRTEDT": "2014-05-07",
    "SAFFL": "Y",
    "ITTFL": "Y",
    "EFFFL": "Y",
    "PARAMCD": "CIBIC",
    "PARAM": "CIBIC+ Score",
    "PARAMN": 1,
    "AVAL": 5,
    "AVALC": "5",
    "BASE": null,
    "CHG": null,
    "AVISIT": "Week 24",
    "AVISITN": 24,
    "ADT": "2014-05-24",
    "ADY": 69,
    "ABLFL": null,
    "ANL01FL": "Y",
    "ANL02FL": null,
    "DTYPE": "LOCF"
  },
  {
    "STUDYID": "CDISCPILOT01",
    "USUBJID": "01-704-1008",
    "SITEID": "704",
    "SITEGR1": "704",
    "TRT01P": "Xanomeline High Dose",
    "TRT01A": "Xanomeline High Dose",
    "TRT01PN": 2,
    "TRTP": "Xanomeline High Dose",
    "TRTA": "Xanomeline High Dose",
    "TRTSDT": "2013-01-13",
    "TRTEDT": "2013-02-21",
    "SAFFL": "Y",
    "ITTFL": "Y",
    "EFFFL": "Y",
    "PARAMCD": "CIBIC",
    "PARAM": "CIBIC+ Score",
    "PARAMN": 1,
    "AVAL": 5,
    "AVALC": "5",
    "BASE": null,
    "CHG": null,
    "AVISIT": "Week 16",
    "AVISITN": 16,
    "ADT": "2013-02-25",
    "ADY": 44,
    "ABLFL": null,
    "ANL01FL": "Y",
    "ANL02FL": null,
    "DTYPE": "LOCF"
  },
  {
    "STUDYID": "CDISCPILOT01",
    "USUBJID": "01-704-1008",
    "SITEID": "704",
    "SITEGR1": "704",
    "TRT01P": "Xanomeline High Dose",
    "TRT01A": "Xanomeline High Dose",
    "TRT01PN": 2,
    "TRTP": "Xanomeline High Dose",
    "TRTA": "Xanomeline High Dose",
    "TRTSDT": "2013-01-13",
    "TRTEDT": "2013-02-21",
    "SAFFL": "Y",
    "ITTFL": "Y",
    "EFFFL": "Y",
    "PARAMCD": "CIBIC",
    "PARAM": "CIBIC+ Score",
    "PARAMN": 1,
    "AVAL": 5,
    "AVALC": "5",
    "BASE": null,
    "CHG": null,
    "AVISIT": "Week 24",
    "AVISITN": 24,
    "ADT": "2013-02-25",
    "ADY": 44,
    "ABLFL": null,
    "ANL01FL": "Y",
    "ANL02FL": null,
    "DTYPE": "LOCF"
  },
  {
    "STUDYID": "CDISCPILOT01",
    "USUBJID": "01-704-1017",
    "SITEID": "704",
    "SITEGR1": "704",
    "TRT01P": "Xanomeline High Dose",
    "TRT01A": "Xanomeline High Dose",
    "TRT01PN": 2,
    "TRTP": "Xanomeline High Dose",
    "TRTA": "Xanomeline High Dose",
    "TRTSDT": "2013-10-06",
    "TRTEDT": "2013-11-18",
    "SAFFL": "Y",
    "ITTFL": "Y",
    "EFFFL": "Y",
    "PARAMCD": "CIBIC",
    "PARAM": "CIBIC+ Score",
    "PARAMN": 1,
    "AVAL": 4,
    "AVALC": "4",
    "BASE": null,
    "CHG": null,
    "AVISIT": "Week 16",
    "AVISITN": 16,
    "ADT": "2013-11-24",
    "ADY": 50,
    "ABLFL": null,
    "ANL01FL": "Y",
    "ANL02FL": null,
    "DTYPE": "LOCF"
  },
  {
    "STUDYID": "CDISCPILOT01",
    "USUBJID": "01-704-1017",
    "SITEID": "704",
    "SITEGR1": "704",
    "TRT01P": "Xanomeline High Dose",
    "TRT01A": "Xanomeline High Dose",
    "TRT01PN": 2,
    "TRTP": "Xanomeline High Dose",
    "TRTA": "Xanomeline High Dose",
    "TRTSDT": "2013-10-06",
    "TRTEDT": "2013-11-18",
    "SAFFL": "Y",
    "ITTFL": "Y",
    "EFFFL": "Y",
    "PARAMCD": "CIBIC",
    "PARAM": "CIBIC+ Score",
    "PARAMN": 1,
    "AVAL": 4,
    "AVALC": "4",
    "BASE": null,
    "CHG": null,
    "AVISIT": "Week 24",
    "AVISITN": 24,
    "ADT": "2013-11-24",
    "ADY": 50,
    "ABLFL": null,
    "ANL01FL": "Y",
    "ANL02FL": null,
    "DTYPE": "LOCF"
  },
  {
    "STUDYID": "CDISCPILOT01",
    "USUBJID": "01-704-1065",
    "SITEID": "704",
    "SITEGR1": "704",
    "TRT01P": "Xanomeline High Dose",
    "TRT01A": "Xanomeline High Dose",
    "TRT01PN": 2,
    "TRTP": "Xanomeline High Dose",
    "TRTA": "Xanomeline High Dose",
    "TRTSDT": "2013-10-24",
    "TRTEDT": "2013-12-22",
    "SAFFL": "Y",
    "ITTFL": "Y",
    "EFFFL": "Y",
    "PARAMCD": "CIBIC",
    "PARAM": "CIBIC+ Score",
    "PARAMN": 1,
    "AVAL": 5,
    "AVALC": "5",
    "BASE": null,
    "CHG": null,
    "AVISIT": "Week 24",
    "AVISITN": 24,
    "ADT": "2013-12-24",
    "ADY": 62,
    "ABLFL": null,
    "ANL01FL": "Y",
    "ANL02FL": null,
    "DTYPE": "LOCF"
  },
  {
    "STUDYID": "CDISCPILOT01",
    "USUBJID": "01-704-1120",
    "SITEID": "704",
    "SITEGR1": "704",
    "TRT01P": "Xanomeline Low Dose",
    "TRT01A": "Xanomeline Low Dose",
    "TRT01PN": 1,
    "TRTP": "Xanomeline Low Dose",
    "TRTA": "Xanomeline Low Dose",
    "TRTSDT": "2013-12-02",
    "TRTEDT": "2014-02-01",
    "SAFFL": "Y",
    "ITTFL": "Y",
    "EFFFL": "Y",
    "PARAMCD": "CIBIC",
    "PARAM": "CIBIC+ Score",
    "PARAMN": 1,
    "AVAL": 4,
    "AVALC": "4",
    "BASE": null,
    "CHG": null,
    "AVISIT": "Week 24",
    "AVISITN": 24,
    "ADT": "2014-02-03",
    "ADY": 64,
    "ABLFL": null,
    "ANL01FL": "Y",
    "ANL02FL": null,
    "DTYPE": "LOCF"
  },
  {
    "STUDYID": "CDISCPILOT01",
    "USUBJID": "01-705-1310",
    "SITEID": "705",
    "SITEGR1": "705",
    "TRT01P": "Xanomeline High Dose",
    "TRT01A": "Xanomeline High Dose",
    "TRT01PN": 2,
    "TRTP": "Xanomeline High Dose",
    "TRTA": "Xanomeline High Dose",
    "TRTSDT": "2013-11-02",
    "TRTEDT": "2014-01-23",
    "SAFFL": "Y",
    "ITTFL": "Y",
    "EFFFL": "Y",
    "PARAMCD": "CIBIC",
    "PARAM": "CIBIC+ Score",
    "PARAMN": 1,
    "AVAL": 3,
    "AVALC": "3",
    "BASE": null,
    "CHG": null,
    "AVISIT": "Week 24",
    "AVISITN": 24,
    "ADT": "2014-01-23",
    "ADY": 83,
    "ABLFL": null,
    "ANL01FL": "Y",
    "ANL02FL": null,
    "DTYPE": "LOCF"
  },
  {
    "STUDYID": "CDISCPILOT01",
    "USUBJID": "01-706-1049",
    "SITEID": "706",
    "SITEGR1": "706",
    "TRT01P": "Xanomeline High Dose",
    "TRT01A": "Xanomeline High Dose",
    "TRT01PN": 2,
    "TRTP": "Xanomeline High Dose",
    "TRTA": "Xanomeline High Dose",
    "TRTSDT": "2013-05-14",
    "TRTEDT": "2013-06-18",
    "SAFFL": "Y",
    "ITTFL": "Y",
    "EFFFL": "Y",
    "PARAMCD": "CIBIC",
    "PARAM": "CIBIC+ Score",
    "PARAMN": 1,
    "AVAL": 4,
    "AVALC": "4",
    "BASE": null,
    "CHG": null,
    "AVISIT": "Week 16",
    "AVISITN": 16,
    "ADT": "2013-06-25",
    "ADY": 43,
    "ABLFL": null,
    "ANL01FL": "Y",
    "ANL02FL": null,
    "DTYPE": "LOCF"
  },
  {
    "STUDYID": "CDISCPILOT01",
    "USUBJID": "01-706-1049",
    "SITEID": "706",
    "SITEGR1": "706",
    "TRT01P": "Xanomeline High Dose",
    "TRT01A": "Xanomeline High Dose",
    "TRT01PN": 2,
    "TRTP": "Xanomeline High Dose",
    "TRTA": "Xanomeline High Dose",
    "TRTSDT": "2013-05-14",
    "TRTEDT": "2013-06-18",
    "SAFFL": "Y",
    "ITTFL": "Y",
    "EFFFL": "Y",
    "PARAMCD": "CIBIC",
    "PARAM": "CIBIC+ Score",
    "PARAMN": 1,
    "AVAL": 4,
    "AVALC": "4",
    "BASE": null,
    "CHG": null,
    "AVISIT": "Week 24",
    "AVISITN": 24,
    "ADT": "2013-06-25",
    "ADY": 43,
    "ABLFL": null,
    "ANL01FL": "Y",
    "ANL02FL": null,
    "DTYPE": "LOCF"
  },
  {
    "STUDYID": "CDISCPILOT01",
    "USUBJID": "01-708-1158",
    "SITEID": "708",
    "SITEGR1": "708",
    "TRT01P": "Placebo",
    "TRT01A": "Placebo",
    "TRT01PN": 0,
    "TRTP": "Placebo",
    "TRTA": "Placebo",
    "TRTSDT": "2014-02-08",
    "TRTEDT": "2014-03-21",
    "SAFFL": "Y",
    "ITTFL": "Y",
    "EFFFL": "Y",
    "PARAMCD": "CIBIC",
    "PARAM": "CIBIC+ Score",
    "PARAMN": 1,
    "AVAL": 5,
    "AVALC": "5",
    "BASE": null,
    "CHG": null,
    "AVISIT": "Week 16",
    "AVISITN": 16,
    "ADT": "2014-03-22",
    "ADY": 43,
    "ABLFL": null,
    "ANL01FL": "Y",
    "ANL02FL": null,
    "DTYPE": "LOCF"
  },
  {
    "STUDYID": "CDISCPILOT01",
    "USUBJID": "01-708-1158",
    "SITEID": "708",
    "SITEGR1": "708",
    "TRT01P": "Placebo",
    "TRT01A": "Placebo",
    "TRT01PN": 0,
    "TRTP": "Placebo",
    "TRTA": "Placebo",
    "TRTSDT": "2014-02-08",
    "TRTEDT": "2014-03-21",
    "SAFFL": "Y",
    "ITTFL": "Y",
    "EFFFL": "Y",
    "PARAMCD": "CIBIC",
    "PARAM": "CIBIC+ Score",
    "PARAMN": 1,
    "AVAL": 5,
    "AVALC": "5",
    "BASE": null,
    "CHG": null,
    "AVISIT": "Week 24",
    "AVISITN": 24,
    "ADT": "2014-03-22",
    "ADY": 43,
    "ABLFL": null,
    "ANL01FL": "Y",
    "ANL02FL": null,
    "DTYPE": "LOCF"
  },
  {
    "STUDYID": "CDISCPILOT01",
    "USUBJID": "01-708-1178",
    "SITEID": "708",
    "SITEGR1": "708",
    "TRT01P": "Xanomeline High Dose",
    "TRT01A": "Xanomeline High Dose",
    "TRT01PN": 2,
    "TRTP": "Xanomeline High Dose",
    "TRTA": "Xanomeline High Dose",
    "TRTSDT": "2013-12-29",
    "TRTEDT": "2014-04-06",
    "SAFFL": "Y",
    "ITTFL": "Y",
    "EFFFL": "Y",
    "PARAMCD": "CIBIC",
    "PARAM": "CIBIC+ Score",
    "PARAMN": 1,
    "AVAL": 3,
    "AVALC": "3",
    "BASE": null,
    "CHG": null,
    "AVISIT": "Week 24",
    "AVISITN": 24,
    "ADT": "2014-04-06",
    "ADY": 99,
    "ABLFL": null,
    "ANL01FL": "Y",
    "ANL02FL": null,
    "DTYPE": "LOCF"
  },
  {
    "STUDYID": "CDISCPILOT01",
    "USUBJID": "01-708-1216",
    "SITEID": "708",
    "SITEGR1": "708",
    "TRT01P": "Xanomeline High Dose",
    "TRT01A": "Xanomeline High Dose",
    "TRT01PN": 2,
    "TRTP": "Xanomeline High Dose",
    "TRTA": "Xanomeline High Dose",
    "TRTSDT": "2012-10-24",
    "TRTEDT": "2012-11-29",
    "SAFFL": "Y",
    "ITTFL": "Y",
    "EFFFL": "Y",
    "PARAMCD": "CIBIC",
    "PARAM": "CIBIC+ Score",
    "PARAMN": 1,
    "AVAL": 3,
    "AVALC": "3",
    "BASE": null,
    "CHG": null,
    "AVISIT": "Week 16",
    "AVISITN": 16,
    "ADT": "2012-12-06",
    "ADY": 44,
    "ABLFL": null,
    "ANL01FL": "Y",
    "ANL02FL": null,
    "DTYPE": "LOCF"
  },
  {
    "STUDYID": "CDISCPILOT01",
    "USUBJID": "01-708-1216",
    "SITEID": "708",
    "SITEGR1": "708",
    "TRT01P": "Xanomeline High Dose",
    "TRT01A": "Xanomeline High Dose",
    "TRT01PN": 2,
    "TRTP": "Xanomeline High Dose",
    "TRTA": "Xanomeline High Dose",
    "TRTSDT": "2012-10-24",
    "TRTEDT": "2012-11-29",
    "SAFFL": "Y",
    "ITTFL": "Y",
    "EFFFL": "Y",
    "PARAMCD": "CIBIC",
    "PARAM": "CIBIC+ Score",
    "PARAMN": 1,
    "AVAL": 3,
    "AVALC": "3",
    "BASE": null,
    "CHG": null,
    "AVISIT": "Week 24",
    "AVISITN": 24,
    "ADT": "2012-12-06",
    "ADY": 44,
    "ABLFL": null,
    "ANL01FL": "Y",
    "ANL02FL": null,
    "DTYPE": "LOCF"
  },
  {
    "STUDYID": "CDISCPILOT01",
    "USUBJID": "01-708-1347",
    "SITEID": "708",
    "SITEGR1": "708",
    "TRT01P": "Xanomeline High Dose",
    "TRT01A": "Xanomeline High Dose",
    "TRT01PN": 2,
    "TRTP": "Xanomeline High Dose",
    "TRTA": "Xanomeline High Dose",
    "TRTSDT": "2013-04-20",
    "TRTEDT": "2013-06-18",
    "SAFFL": "Y",
    "ITTFL": "Y",
    "EFFFL": "Y",
    "PARAMCD": "CIBIC",
    "PARAM": "CIBIC+ Score",
    "PARAMN": 1,
    "AVAL": 4,
    "AVALC": "4",
    "BASE": null,
    "CHG": null,
    "AVISIT": "Week 24",
    "AVISITN": 24,
    "ADT": "2013-06-18",
    "ADY": 60,
    "ABLFL": null,
    "ANL01FL": "Y",
    "ANL02FL": null,
    "DTYPE": "LOCF"
  },
  {
    "STUDYID": "CDISCPILOT01",
    "USUBJID": "01-709-1102",
    "SITEID": "709",
    "SITEGR1": "709",
    "TRT01P": "Xanomeline Low Dose",
    "TRT01A": "Xanomeline Low Dose",
    "TRT01PN": 1,
    "TRTP": "Xanomeline Low Dose",
    "TRTA": "Xanomeline Low Dose",
    "TRTSDT": "2013-01-15",
    "TRTEDT": "2013-03-27",
    "SAFFL": "Y",
    "ITTFL": "Y",
    "EFFFL": "Y",
    "PARAMCD": "CIBIC",
    "PARAM": "CIBIC+ Score",
    "PARAMN": 1,
    "AVAL": 5,
    "AVALC": "5",
    "BASE": null,
    "CHG": null,
    "AVISIT": "Week 24",
    "AVISITN": 24,
    "ADT": "2013-03-31",
    "ADY": 76,
    "ABLFL": null,
    "ANL01FL": "Y",
    "ANL02FL": null,
    "DTYPE": "LOCF"
  },
  {
    "STUDYID": "CDISCPILOT01",
    "USUBJID": "01-709-1238",
    "SITEID": "709",
    "SITEGR1": "709",
    "TRT01P": "Xanomeline High Dose",
    "TRT01A": "Xanomeline High Dose",
    "TRT01PN": 2,
    "TRTP": "Xanomeline High Dose",
    "TRTA": "Xanomeline High Dose",
    "TRTSDT": "2013-05-15",
    "TRTEDT": "2013-08-06",
    "SAFFL": "Y",
    "ITTFL": "Y",
    "EFFFL": "Y",
    "PARAMCD": "CIBIC",
    "PARAM": "CIBIC+ Score",
    "PARAMN": 1,
    "AVAL": 4,
    "AVALC": "4",
    "BASE": null,
    "CHG": null,
    "AVISIT": "Week 24",
    "AVISITN": 24,
    "ADT": "2013-08-07",
    "ADY": 85,
    "ABLFL": null,
    "ANL01FL": "Y",
    "ANL02FL": null,
    "DTYPE": "LOCF"
  },
  {
    "STUDYID": "CDISCPILOT01",
    "USUBJID": "01-709-1285",
    "SITEID": "709",
    "SITEGR1": "709",
    "TRT01P": "Xanomeline Low Dose",
    "TRT01A": "Xanomeline Low Dose",
    "TRT01PN": 1,
    "TRTP": "Xanomeline Low Dose",
    "TRTA": "Xanomeline Low Dose",
    "TRTSDT": "2013-03-24",
    "TRTEDT": "2013-05-23",
    "SAFFL": "Y",
    "ITTFL": "Y",
    "EFFFL": "Y",
    "PARAMCD": "CIBIC",
    "PARAM": "CIBIC+ Score",
    "PARAMN": 1,
    "AVAL": 3,
    "AVALC": "3",
    "BASE": null,
    "CHG": null,
    "AVISIT": "Week 24",
    "AVISITN": 24,
    "ADT": "2013-05-31",
    "ADY": 69,
    "ABLFL": null,
    "ANL01FL": "Y",
    "ANL02FL": null,
    "DTYPE": "LOCF"
  },
  {
    "STUDYID": "CDISCPILOT01",
    "USUBJID": "01-710-1045",
    "SITEID": "710",
    "SITEGR1": "710",
    "TRT01P": "Xanomeline Low Dose",
    "TRT01A": "Xanomeline Low Dose",
    "TRT01PN": 1,
    "TRTP": "Xanomeline Low Dose",
    "TRTA": "Xanomeline Low Dose",
    "TRTSDT": "2013-06-03",
    "TRTEDT": "2013-08-13",
    "SAFFL": "Y",
    "ITTFL": "Y",
    "EFFFL": "Y",
    "PARAMCD": "CIBIC",
    "PARAM": "CIBIC+ Score",
    "PARAMN": 1,
    "AVAL": 5,
    "AVALC": "5",
    "BASE": null,
    "CHG": null,
    "AVISIT": "Week 24",
    "AVISITN": 24,
    "ADT": "2013-08-17",
    "ADY": 76,
    "ABLFL": null,
    "ANL01FL": "Y",
    "ANL02FL": null,
    "DTYPE": "LOCF"
  },
  {
    "STUDYID": "CDISCPILOT01",
    "USUBJID": "01-710-1154",
    "SITEID": "710",
    "SITEGR1": "710",
    "TRT01P": "Xanomeline Low Dose",
    "TRT01A": "Xanomeline Low Dose",
    "TRT01PN": 1,
    "TRTP": "Xanomeline Low Dose",
    "TRTA": "Xanomeline Low Dose",
    "TRTSDT": "2014-03-29",
    "TRTEDT": "2014-04-27",
    "SAFFL": "Y",
    "ITTFL": "Y",
    "EFFFL": "Y",
    "PARAMCD": "CIBIC",
    "PARAM": "CIBIC+ Score",
    "PARAMN": 1,
    "AVAL": 4,
    "AVALC": "4",
    "BASE": null,
    "CHG": null,
    "AVISIT": "Week 16",
    "AVISITN": 16,
    "ADT": "2014-05-09",
    "ADY": 42,
    "ABLFL": null,
    "ANL01FL": "Y",
    "ANL02FL": null,
    "DTYPE": "LOCF"
  },
  {
    "STUDYID": "CDISCPILOT01",
    "USUBJID": "01-710-1154",
    "SITEID": "710",
    "SITEGR1": "710",
    "TRT01P": "Xanomeline Low Dose",
    "TRT01A": "Xanomeline Low Dose",
    "TRT01PN": 1,
    "TRTP": "Xanomeline Low Dose",
    "TRTA": "Xanomeline Low Dose",
    "TRTSDT": "2014-03-29",
    "TRTEDT": "2014-04-27",
    "SAFFL": "Y",
    "ITTFL": "Y",
    "EFFFL": "Y",
    "PARAMCD": "CIBIC",
    "PARAM": "CIBIC+ Score",
    "PARAMN": 1,
    "AVAL": 4,
    "AVALC": "4",
    "BASE": null,
    "CHG": null,
    "AVISIT": "Week 24",
    "AVISITN": 24,
    "ADT": "2014-05-09",
    "ADY": 42,
    "ABLFL": null,
    "ANL01FL": "Y",
    "ANL02FL": null,
    "DTYPE": "LOCF"
  },
  {
    "STUDYID": "CDISCPILOT01",
    "USUBJID": "01-710-1278",
    "SITEID": "710",
    "SITEGR1": "710",
    "TRT01P": "Xanomeline High Dose",
    "TRT01A": "Xanomeline High Dose",
    "TRT01PN": 2,
    "TRTP": "Xanomeline High Dose",
    "TRTA": "Xanomeline High Dose",
    "TRTSDT": "2012-12-24",
    "TRTEDT": "2013-02-26",
    "SAFFL": "Y",
    "ITTFL": "Y",
    "EFFFL": "Y",
    "PARAMCD": "CIBIC",
    "PARAM": "CIBIC+ Score",
    "PARAMN": 1,
    "AVAL": 3,
    "AVALC": "3",
    "BASE": null,
    "CHG": null,
    "AVISIT": "Week 24",
    "AVISITN": 24,
    "ADT": "2013-03-03",
    "ADY": 70,
    "ABLFL": null,
    "ANL01FL": "Y",
    "ANL02FL": null,
    "DTYPE": "LOCF"
  },
  {
    "STUDYID": "CDISCPILOT01",
    "USUBJID": "01-710-1300",
    "SITEID": "710",
    "SITEGR1": "710",
    "TRT01P": "Xanomeline Low Dose",
    "TRT01A": "Xanomeline Low Dose",
    "TRT01PN": 1,
    "TRTP": "Xanomeline Low Dose",
    "TRTA": "Xanomeline Low Dose",
    "TRTSDT": "2012-12-15",
    "TRTEDT": "2013-02-15",
    "SAFFL": "Y",
    "ITTFL": "Y",
    "EFFFL": "Y",
    "PARAMCD": "CIBIC",
    "PARAM": "CIBIC+ Score",
    "PARAMN": 1,
    "AVAL": 4,
    "AVALC": "4",
    "BASE": null,
    "CHG": null,
    "AVISIT": "Week 24",
    "AVISITN": 24,
    "ADT": "2013-02-19",
    "ADY": 67,
    "ABLFL": null,
    "ANL01FL": "Y",
    "ANL02FL": null,
    "DTYPE": "LOCF"
  },
  {
    "STUDYID": "CDISCPILOT01",
    "USUBJID": "01-711-1143",
    "SITEID": "711",
    "SITEGR1": "711",
    "TRT01P": "Xanomeline Low Dose",
    "TRT01A": "Xanomeline Low Dose",
    "TRT01PN": 1,
    "TRTP": "Xanomeline Low Dose",
    "TRTA": "Xanomeline Low Dose",
    "TRTSDT": "2013-04-03",
    "TRTEDT": "2013-05-30",
    "SAFFL": "Y",
    "ITTFL": "Y",
    "EFFFL": "Y",
    "PARAMCD": "CIBIC",
    "PARAM": "CIBIC+ Score",
    "PARAMN": 1,
    "AVAL": 3,
    "AVALC": "3",
    "BASE": null,
    "CHG": null,
    "AVISIT": "Week 24",
    "AVISITN": 24,
    "ADT": "2013-06-01",
    "ADY": 60,
    "ABLFL": null,
    "ANL01FL": "Y",
    "ANL02FL": null,
    "DTYPE": "LOCF"
  },
  {
    "STUDYID": "CDISCPILOT01",
    "USUBJID": "01-714-1068",
    "SITEID": "714",
    "SITEGR1": "714",
    "TRT01P": "Xanomeline Low Dose",
    "TRT01A": "Xanomeline Low Dose",
    "TRT01PN": 1,
    "TRTP": "Xanomeline Low Dose",
    "TRTA": "Xanomeline Low Dose",
    "TRTSDT": "2013-08-08",
    "TRTEDT": "2013-10-08",
    "SAFFL": "Y",
    "ITTFL": "Y",
    "EFFFL": "Y",
    "PARAMCD": "CIBIC",
    "PARAM": "CIBIC+ Score",
    "PARAMN": 1,
    "AVAL": 4,
    "AVALC": "4",
    "BASE": null,
    "CHG": null,
    "AVISIT": "Week 24",
    "AVISITN": 24,
    "ADT": "2013-10-16",
    "ADY": 70,
    "ABLFL": null,
    "ANL01FL": "Y",
    "ANL02FL": null,
    "DTYPE": "LOCF"
  },
  {
    "STUDYID": "CDISCPILOT01",
    "USUBJID": "01-715-1107",
    "SITEID": "715",
    "SITEGR1": "715",
    "TRT01P": "Xanomeline Low Dose",
    "TRT01A": "Xanomeline Low Dose",
    "TRT01PN": 1,
    "TRTP": "Xanomeline Low Dose",
    "TRTA": "Xanomeline Low Dose",
    "TRTSDT": "2013-02-26",
    "TRTEDT": "2013-05-07",
    "SAFFL": "Y",
    "ITTFL": "Y",
    "EFFFL": "Y",
    "PARAMCD": "CIBIC",
    "PARAM": "CIBIC+ Score",
    "PARAMN": 1,
    "AVAL": 4,
    "AVALC": "4",
    "BASE": null,
    "CHG": null,
    "AVISIT": "Week 24",
    "AVISITN": 24,
    "ADT": "2013-05-13",
    "ADY": 77,
    "ABLFL": null,
    "ANL01FL": "Y",
    "ANL02FL": null,
    "DTYPE": "LOCF"
  },
  {
    "STUDYID": "CDISCPILOT01",
    "USUBJID": "01-715-1321",
    "SITEID": "715",
    "SITEGR1": "715",
    "TRT01P": "Xanomeline High Dose",
    "TRT01A": "Xanomeline High Dose",
    "TRT01PN": 2,
    "TRTP": "Xanomeline High Dose",
    "TRTA": "Xanomeline High Dose",
    "TRTSDT": "2014-02-11",
    "TRTEDT": "2014-04-21",
    "SAFFL": "Y",
    "ITTFL": "Y",
    "EFFFL": "Y",
    "PARAMCD": "CIBIC",
    "PARAM": "CIBIC+ Score",
    "PARAMN": 1,
    "AVAL": 5,
    "AVALC": "5",
    "BASE": null,
    "CHG": null,
    "AVISIT": "Week 24",
    "AVISITN": 24,
    "ADT": "2014-04-22",
    "ADY": 71,
    "ABLFL": null,
    "ANL01FL": "Y",
    "ANL02FL": null,
    "DTYPE": "LOCF"
  },
  {
    "STUDYID": "CDISCPILOT01",
    "USUBJID": "01-716-1094",
    "SITEID": "716",
    "SITEGR1": "716",
    "TRT01P": "Xanomeline Low Dose",
    "TRT01A": "Xanomeline Low Dose",
    "TRT01PN": 1,
    "TRTP": "Xanomeline Low Dose",
    "TRTA": "Xanomeline Low Dose",
    "TRTSDT": "2012-12-19",
    "TRTEDT": "2013-01-24",
    "SAFFL": "Y",
    "ITTFL": "Y",
    "EFFFL": "Y",
    "PARAMCD": "CIBIC",
    "PARAM": "CIBIC+ Score",
    "PARAMN": 1,
    "AVAL": 2,
    "AVALC": "2",
    "BASE": null,
    "CHG": null,
    "AVISIT": "Week 16",
    "AVISITN": 16,
    "ADT": "2013-01-26",
    "ADY": 39,
    "ABLFL": null,
    "ANL01FL": "Y",
    "ANL02FL": null,
    "DTYPE": "LOCF"
  },
  {
    "STUDYID": "CDISCPILOT01",
    "USUBJID": "01-716-1094",
    "SITEID": "716",
    "SITEGR1": "716",
    "TRT01P": "Xanomeline Low Dose",
    "TRT01A": "Xanomeline Low Dose",
    "TRT01PN": 1,
    "TRTP": "Xanomeline Low Dose",
    "TRTA": "Xanomeline Low Dose",
    "TRTSDT": "2012-12-19",
    "TRTEDT": "2013-01-24",
    "SAFFL": "Y",
    "ITTFL": "Y",
    "EFFFL": "Y",
    "PARAMCD": "CIBIC",
    "PARAM": "CIBIC+ Score",
    "PARAMN": 1,
    "AVAL": 2,
    "AVALC": "2",
    "BASE": null,
    "CHG": null,
    "AVISIT": "Week 24",
    "AVISITN": 24,
    "ADT": "2013-01-26",
    "ADY": 39,
    "ABLFL": null,
    "ANL01FL": "Y",
    "ANL02FL": null,
    "DTYPE": "LOCF"
  },
  {
    "STUDYID": "CDISCPILOT01",
    "USUBJID": "01-716-1229",
    "SITEID": "716",
    "SITEGR1": "716",
    "TRT01P": "Xanomeline High Dose",
    "TRT01A": "Xanomeline High Dose",
    "TRT01PN": 2,
    "TRTP": "Xanomeline High Dose",
    "TRTA": "Xanomeline High Dose",
    "TRTSDT": "2013-02-20",
    "TRTEDT": "2013-03-31",
    "SAFFL": "Y",
    "ITTFL": "Y",
    "EFFFL": "Y",
    "PARAMCD": "CIBIC",
    "PARAM": "CIBIC+ Score",
    "PARAMN": 1,
    "AVAL": 4,
    "AVALC": "4",
    "BASE": null,
    "CHG": null,
    "AVISIT": "Week 16",
    "AVISITN": 16,
    "ADT": "2013-04-02",
    "ADY": 42,
    "ABLFL": null,
    "ANL01FL": "Y",
    "ANL02FL": null,
    "DTYPE": "LOCF"
  },
  {
    "STUDYID": "CDISCPILOT01",
    "USUBJID": "01-716-1229",
    "SITEID": "716",
    "SITEGR1": "716",
    "TRT01P": "Xanomeline High Dose",
    "TRT01A": "Xanomeline High Dose",
    "TRT01PN": 2,
    "TRTP": "Xanomeline High Dose",
    "TRTA": "Xanomeline High Dose",
    "TRTSDT": "2013-02-20",
    "TRTEDT": "2013-03-31",
    "SAFFL": "Y",
    "ITTFL": "Y",
    "EFFFL": "Y",
    "PARAMCD": "CIBIC",
    "PARAM": "CIBIC+ Score",
    "PARAMN": 1,
    "AVAL": 4,
    "AVALC": "4",
    "BASE": null,
    "CHG": null,
    "AVISIT": "Week 24",
    "AVISITN": 24,
    "ADT": "2013-04-02",
    "ADY": 42,
    "ABLFL": null,
    "ANL01FL": "Y",
    "ANL02FL": null,
    "DTYPE": "LOCF"
  },
  {
    "STUDYID": "CDISCPILOT01",
    "USUBJID": "01-716-1298",
    "SITEID": "716",
    "SITEGR1": "716",
    "TRT01P": "Xanomeline Low Dose",
    "TRT01A": "Xanomeline Low Dose",
    "TRT01PN": 1,
    "TRTP": "Xanomeline Low Dose",
    "TRTA": "Xanomeline Low Dose",
    "TRTSDT": "2013-04-08",
    "TRTEDT": "2013-06-28",
    "SAFFL": "Y",
    "ITTFL": "Y",
    "EFFFL": "Y",
    "PARAMCD": "CIBIC",
    "PARAM": "CIBIC+ Score",
    "PARAMN": 1,
    "AVAL": 4,
    "AVALC": "4",
    "BASE": null,
    "CHG": null,
    "AVISIT": "Week 24",
    "AVISITN": 24,
    "ADT": "2013-07-06",
    "ADY": 90,
    "ABLFL": null,
    "ANL01FL": "Y",
    "ANL02FL": null,
    "DTYPE": "LOCF"
  },
  {
    "STUDYID": "CDISCPILOT01",
    "USUBJID": "01-716-1308",
    "SITEID": "716",
    "SITEGR1": "716",
    "TRT01P": "Placebo",
    "TRT01A": "Placebo",
    "TRT01PN": 0,
    "TRTP": "Placebo",
    "TRTA": "Placebo",
    "TRTSDT": "2013-08-28",
    "TRTEDT": "2013-10-07",
    "SAFFL": "Y",
    "ITTFL": "Y",
    "EFFFL": "Y",
    "PARAMCD": "CIBIC",
    "PARAM": "CIBIC+ Score",
    "PARAMN": 1,
    "AVAL": 6,
    "AVALC": "6",
    "BASE": null,
    "CHG": null,
    "AVISIT": "Week 16",
    "AVISITN": 16,
    "ADT": "2013-10-07",
    "ADY": 41,
    "ABLFL": null,
    "ANL01FL": "Y",
    "ANL02FL": null,
    "DTYPE": "LOCF"
  },
  {
    "STUDYID": "CDISCPILOT01",
    "USUBJID": "01-716-1308",
    "SITEID": "716",
    "SITEGR1": "716",
    "TRT01P": "Placebo",
    "TRT01A": "Placebo",
    "TRT01PN": 0,
    "TRTP": "Placebo",
    "TRTA": "Placebo",
    "TRTSDT": "2013-08-28",
    "TRTEDT": "2013-10-07",
    "SAFFL": "Y",
    "ITTFL": "Y",
    "EFFFL": "Y",
    "PARAMCD": "CIBIC",
    "PARAM": "CIBIC+ Score",
    "PARAMN": 1,
    "AVAL": 6,
    "AVALC": "6",
    "BASE": null,
    "CHG": null,
    "AVISIT": "Week 24",
    "AVISITN": 24,
    "ADT": "2013-10-07",
    "ADY": 41,
    "ABLFL": null,
    "ANL01FL": "Y",
    "ANL02FL": null,
    "DTYPE": "LOCF"
  },
  {
    "STUDYID": "CDISCPILOT01",
    "USUBJID": "01-716-1373",
    "SITEID": "716",
    "SITEGR1": "716",
    "TRT01P": "Xanomeline High Dose",
    "TRT01A": "Xanomeline High Dose",
    "TRT01PN": 2,
    "TRTP": "Xanomeline High Dose",
    "TRTA": "Xanomeline High Dose",
    "TRTSDT": "2012-12-14",
    "TRTEDT": "2013-02-27",
    "SAFFL": "Y",
    "ITTFL": "Y",
    "EFFFL": "Y",
    "PARAMCD": "CIBIC",
    "PARAM": "CIBIC+ Score",
    "PARAMN": 1,
    "AVAL": 3,
    "AVALC": "3",
    "BASE": null,
    "CHG": null,
    "AVISIT": "Week 24",
    "AVISITN": 24,
    "ADT": "2013-02-28",
    "ADY": 77,
    "ABLFL": null,
    "ANL01FL": "Y",
    "ANL02FL": null,
    "DTYPE": "LOCF"
  },
  {
    "STUDYID": "CDISCPILOT01",
    "USUBJID": "01-718-1079",
    "SITEID": "718",
    "SITEGR1": "718",
    "TRT01P": "Xanomeline Low Dose",
    "TRT01A": "Xanomeline Low Dose",
    "TRT01PN": 1,
    "TRTP": "Xanomeline Low Dose",
    "TRTA": "Xanomeline Low Dose",
    "TRTSDT": "2012-09-19",
    "TRTEDT": "2012-10-31",
    "SAFFL": "Y",
    "ITTFL": "Y",
    "EFFFL": "Y",
    "PARAMCD": "CIBIC",
    "PARAM": "CIBIC+ Score",
    "PARAMN": 1,
    "AVAL": 4,
    "AVALC": "4",
    "BASE": null,
    "CHG": null,
    "AVISIT": "Week 16",
    "AVISITN": 16,
    "ADT": "2012-11-06",
    "ADY": 49,
    "ABLFL": null,
    "ANL01FL": "Y",
    "ANL02FL": null,
    "DTYPE": "LOCF"
  },
  {
    "STUDYID": "CDISCPILOT01",
    "USUBJID": "01-718-1079",
    "SITEID": "718",
    "SITEGR1": "718",
    "TRT01P": "Xanomeline Low Dose",
    "TRT01A": "Xanomeline Low Dose",
    "TRT01PN": 1,
    "TRTP": "Xanomeline Low Dose",
    "TRTA": "Xanomeline Low Dose",
    "TRTSDT": "2012-09-19",
    "TRTEDT": "2012-10-31",
    "SAFFL": "Y",
    "ITTFL": "Y",
    "EFFFL": "Y",
    "PARAMCD": "CIBIC",
    "PARAM": "CIBIC+ Score",
    "PARAMN": 1,
    "AVAL": 4,
    "AVALC": "4",
    "BASE": null,
    "CHG": null,
    "AVISIT": "Week 24",
    "AVISITN": 24,
    "ADT": "2012-11-06",
    "ADY": 49,
    "ABLFL": null,
    "ANL01FL": "Y",
    "ANL02FL": null,
    "DTYPE": "LOCF"
  },
  {
    "STUDYID": "CDISCPILOT01",
    "USUBJID": "01-718-1172",
    "SITEID": "718",
    "SITEGR1": "718",
    "TRT01P": "Placebo",
    "TRT01A": "Placebo",
    "TRT01PN": 0,
    "TRTP": "Placebo",
    "TRTA": "Placebo",
    "TRTSDT": "2013-09-21",
    "TRTEDT": "2013-11-29",
    "SAFFL": "Y",
    "ITTFL": "Y",
    "EFFFL": "Y",
    "PARAMCD": "CIBIC",
    "PARAM": "CIBIC+ Score",
    "PARAMN": 1,
    "AVAL": 4,
    "AVALC": "4",
    "BASE": null,
    "CHG": null,
    "AVISIT": "Week 24",
    "AVISITN": 24,
    "ADT": "2013-11-29",
    "ADY": 70,
    "ABLFL": null,
    "ANL01FL": "Y",
    "ANL02FL": null,
    "DTYPE": "LOCF"
  },
  {
    "STUDYID": "CDISCPILOT01",
    "USUBJID": "01-718-1328",
    "SITEID": "718",
    "SITEGR1": "718",
    "TRT01P": "Xanomeline High Dose",
    "TRT01A": "Xanomeline High Dose",
    "TRT01PN": 2,
    "TRTP": "Xanomeline High Dose",
    "TRTA": "Xanomeline High Dose",
    "TRTSDT": "2013-02-01",
    "TRTEDT": "2013-04-18",
    "SAFFL": "Y",
    "ITTFL": "Y",
    "EFFFL": "Y",
    "PARAMCD": "CIBIC",
    "PARAM": "CIBIC+ Score",
    "PARAMN": 1,
    "AVAL": 5,
    "AVALC": "5",
    "BASE": null,
    "CHG": null,
    "AVISIT": "Week 24",
    "AVISITN": 24,
    "ADT": "2013-05-01",
    "ADY": 90,
    "ABLFL": null,
    "ANL01FL": "Y",
    "ANL02FL": null,
    "DTYPE": "LOCF"
  },
  {
    "STUDYID": "CDISCPILOT01",
    "USUBJID": "01-718-1371",
    "SITEID": "718",
    "SITEGR1": "718",
    "TRT01P": "Xanomeline High Dose",
    "TRT01A": "Xanomeline High Dose",
    "TRT01PN": 2,
    "TRTP": "Xanomeline High Dose",
    "TRTA": "Xanomeline High Dose",
    "TRTSDT": "2013-04-26",
    "TRTEDT": "2013-08-01",
    "SAFFL": "Y",
    "ITTFL": "Y",
    "EFFFL": "Y",
    "PARAMCD": "CIBIC",
    "PARAM": "CIBIC+ Score",
    "PARAMN": 1,
    "AVAL": 4,
    "AVALC": "4",
    "BASE": null,
    "CHG": null,
    "AVISIT": "Week 24",
    "AVISITN": 24,
    "ADT": "2013-08-08",
    "ADY": 105,
    "ABLFL": null,
    "ANL01FL": "Y",
    "ANL02FL": null,
    "DTYPE": "LOCF"
  }
]
