[
  {
    "STUDYID": "CDISCPILOT01",
    "USUBJID": "01-701-1015",
    "SUBJID": "1015",
    "SITEID": "701",
    "AGE": 63,
    "AGEU": "YEARS",
    "SEX": "F",
    "RACE": "WHITE",
    "ETHNIC": "HISPANIC OR LATINO",
    "ARM": "Placebo",
    "ARMCD": "Pbo",
    "ACTARM": "Placebo",
    "ACTARMCD": "Pbo",
    "RFSTDTC": "2014-01-02",
    "RFENDTC": "2014-07-02",
    "DTHDTC": "",
    "DTHFL": null,
    "COUNTRY": "USA",
    "TRT01P": "Placebo",
    "TRT01A": "Placebo",
    "TRT01PN": 0,
    "TRT01AN": 0,
    "AGEGR1": "<65",
    "AGEGR1N": 1,
    "RACEN": 1,
    "TRTSDT": "2014-01-02",
    "TRTEDT": "2014-07-02",
    "TRTDUR": 182,
    "EOSSTT": "COMPLETED",
    "DCSREAS": null,
    "DISDT": "2014-07-02",
    "COMP16FL": "Y",
    "COMP24FL": "Y",
    "COMP8FL": "Y",
    "EFFFL": "Y",
    "ITTFL": "Y",
    "SAFFL": "Y",
    "EDUCLVL": 16,
    "MMSETOT": null,
    "DISONSDT": "2010-04-30",
    "DURDIS": 43.8932,
    "DURDSGR1": ">=12",
    "WEIGHTBL": 54.43,
    "HEIGHTBL": null,
    "BMIBL": null,
    "BMIBLGR1": null,
    "DTHDT": null,
    "SITEGR1": "701"
  },
  {
    "STUDYID": "CDISCPILOT01",
    "USUBJID": "01-701-1023",
    "SUBJID": "1023",
    "SITEID": "701",
    "AGE": 64,
    "AGEU": "YEARS",
    "SEX": "M",
    "RACE": "WHITE",
    "ETHNIC": "HISPANIC OR LATINO",
    "ARM": "Placebo",
    "ARMCD": "Pbo",
    "ACTARM": "Placebo",
    "ACTARMCD": "Pbo",
    "RFSTDTC": "2012-08-05",
    "RFENDTC": "2012-09-02",
    "DTHDTC": "",
    "DTHFL": null,
    "COUNTRY": "USA",
    "TRT01P": "Placebo",
    "TRT01A": "Placebo",
    "TRT01PN": 0,
    "TRT01AN": 0,
    "AGEGR1": "<65",
    "AGEGR1N": 1,
    "RACEN": 1,
    "TRTSDT": "2012-08-05",
    "TRTEDT": "2012-09-01",
    "TRTDUR": 28,
    "EOSSTT": "DISCONTINUED",
    "DCSREAS": "ADVERSE EVENT",
    "DISDT": "2012-09-02",
    "COMP16FL": "N",
    "COMP24FL": "N",
    "COMP8FL": "N",
    "EFFFL": "Y",
    "ITTFL": "Y",
    "SAFFL": "Y",
    "EDUCLVL": 14,
    "MMSETOT": null,
    "DISONSDT": "2006-03-11",
    "DURDIS": 76.386,
    "DURDSGR1": ">=12",
    "WEIGHTBL": 80.29,
    "HEIGHTBL": null,
    "BMIBL": null,
    "BMIBLGR1": null,
    "DTHDT": null,
    "SITEGR1": "701"
  },
  {
    "STUDYID": "CDISCPILOT01",
    "USUBJID": "01-701-1028",
    "SUBJID": "1028",
    "SITEID": "701",
    "AGE": 71,
    "AGEU": "YEARS",
    "SEX": "M",
    "RACE": "WHITE",
    "ETHNIC": "NOT HISPANIC OR LATINO",
    "ARM": "Xanomeline High Dose",
    "ARMCD": "Xan_Hi",
    "ACTARM": "Xanomeline High Dose",
    "ACTARMCD": "Xan_Hi",
    "RFSTDTC": "2013-07-19",
    "RFENDTC": "2014-01-14",
    "DTHDTC": "",
    "DTHFL": null,
    "COUNTRY": "USA",
    "TRT01P": "Xanomeline High Dose",
    "TRT01A": "Xanomeline High Dose",
    "TRT01PN": 2,
    "TRT01AN": 2,
    "AGEGR1": "65-80",
    "AGEGR1N": 2,
    "RACEN": 1,
    "TRTSDT": "2013-07-19",
    "TRTEDT": "2014-01-14",
    "TRTDUR": 180,
    "EOSSTT": "COMPLETED",
    "DCSREAS": null,
    "DISDT": "2014-01-14",
    "COMP16FL": "Y",
    "COMP24FL": "Y",
    "COMP8FL": "Y",
    "EFFFL": "Y",
    "ITTFL": "Y",
    "SAFFL": "Y",
    "EDUCLVL": 16,
    "MMSETOT": null,
    "DISONSDT": "2009-12-16",
    "DURDIS": 42.809,
    "DURDSGR1": ">=12",
    "WEIGHTBL": 99.34,
    "HEIGHTBL": null,
    "BMIBL": null,
    "BMIBLGR1": null,
    "DTHDT": null,
    "SITEGR1": "701"
  },
  {
    "STUDYID": "CDISCPILOT01",
    "USUBJID": "01-701-1033",
    "SUBJID": "1033",
    "SITEID": "701",
    "AGE": 74,
    "AGEU": "YEARS",
    "SEX": "M",
    "RACE": "WHITE",
    "ETHNIC": "NOT HISPANIC OR LATINO",
    "ARM": "Xanomeline Low Dose",
    "ARMCD": "Xan_Lo",
    "ACTARM": "Xanomeline Low Dose",
    "ACTARMCD": "Xan_Lo",
    "RFSTDTC": "2014-03-18",
    "RFENDTC": "2014-04-14",
    "DTHDTC": "",
    "DTHFL": null,
    "COUNTRY": "USA",
    "TRT01P": "Xanomeline Low Dose",
    "TRT01A": "Xanomeline Low Dose",
    "TRT01PN": 1,
    "TRT01AN": 1,
    "AGEGR1": "65-80",
    "AGEGR1N": 2,
    "RACEN": 1,
    "TRTSDT": "2014-03-18",
    "TRTEDT": "2014-03-31",
    "TRTDUR": 14,
    "EOSSTT": "DISCONTINUED",
    "DCSREAS": "STUDY TERMINATED BY SPONSOR",
    "DISDT": "2014-04-14",
    "COMP16FL": "N",
    "COMP24FL": "N",
    "COMP8FL": "N",
    "EFFFL": "Y",
    "ITTFL": "Y",
    "SAFFL": "Y",
    "EDUCLVL": 12,
    "MMSETOT": null,
    "DISONSDT": "2009-08-02",
    "DURDIS": 55.2279,
    "DURDSGR1": ">=12",
    "WEIGHTBL": 88.45,
    "HEIGHTBL": null,
    "BMIBL": null,
    "BMIBLGR1": null,
    "DTHDT": null,
    "SITEGR1": "701"
  },
  {
    "STUDYID": "CDISCPILOT01",
    "USUBJID": "01-701-1034",
    "SUBJID": "1034",
    "SITEID": "701",
    "AGE": 77,
    "AGEU": "YEARS",
    "SEX": "F",
    "RACE": "WHITE",
    "ETHNIC": "NOT HISPANIC OR LATINO",
    "ARM": "Xanomeline High Dose",
    "ARMCD": "Xan_Hi",
    "ACTARM": "Xanomeline High Dose",
    "ACTARMCD": "Xan_Hi",
    "RFSTDTC": "2014-07-01",
    "RFENDTC": "2014-12-30",
    "DTHDTC": "",
    "DTHFL": null,
    "COUNTRY": "USA",
    "TRT01P": "Xanomeline High Dose",
    "TRT01A": "Xanomeline High Dose",
    "TRT01PN": 2,
    "TRT01AN": 2,
    "AGEGR1": "65-80",
    "AGEGR1N": 2,
    "RACEN": 1,
    "TRTSDT": "2014-07-01",
    "TRTEDT": "2014-12-30",
    "TRTDUR": 183,
    "EOSSTT": "COMPLETED",
    "DCSREAS": null,
    "DISDT": "2014-12-30",
    "COMP16FL": "Y",
    "COMP24FL": "Y",
    "COMP8FL": "Y",
    "EFFFL": "Y",
    "ITTFL": "Y",
    "SAFFL": "Y",
    "EDUCLVL": 9,
    "MMSETOT": null,
    "DISONSDT": "2011-09-29",
    "DURDIS": 32.8214,
    "DURDSGR1": ">=12",
    "WEIGHTBL": 62.6,
    "HEIGHTBL": null,
    "BMIBL": null,
    "BMIBLGR1": null,
    "DTHDT": null,
    "SITEGR1": "701"
  },
  {
    "STUDYID": "CDISCPILOT01",
    "USUBJID": "01-701-1047",
    "SUBJID": "1047",
    "SITEID": "701",
    "AGE": 85,
    "AGEU": "YEARS",
    "SEX": "F",
    "RACE": "WHITE",
    "ETHNIC": "NOT HISPANIC OR LATINO",
    "ARM": "Placebo",
    "ARMCD": "Pbo",
    "ACTARM": "Placebo",
    "ACTARMCD": "Pbo",
    "RFSTDTC": "2013-02-12",
    "RFENDTC": "2013-03-29",
    "DTHDTC": "",
    "DTHFL": null,
    "COUNTRY": "USA",
    "TRT01P": "Placebo",
    "TRT01A": "Placebo",
    "TRT01PN": 0,
    "TRT01AN": 0,
    "AGEGR1": ">80",
    "AGEGR1N": 3,
    "RACEN": 1,
    "TRTSDT": "2013-02-12",
    "TRTEDT": "2013-03-09",
    "TRTDUR": 26,
    "EOSSTT": "DISCONTINUED",
    "DCSREAS": "ADVERSE EVENT",
    "DISDT": "2013-03-29",
    "COMP16FL": "N",
    "COMP24FL": "N",
    "COMP8FL": "N",
    "EFFFL": "Y",
    "ITTFL": "Y",
    "SAFFL": "Y",
    "EDUCLVL": 8,
    "MMSETOT": null,
    "DISONSDT": "2009-07-26",
    "DURDIS": 41.922,
    "DURDSGR1": ">=12",
    "WEIGHTBL": 67.13,
    "HEIGHTBL": null,
    "BMIBL": null,
    "BMIBLGR1": null,
    "DTHDT": null,
    "SITEGR1": "701"
  },
  {
    "STUDYID": "CDISCPILOT01",
    "USUBJID": "01-701-1057",
    "SUBJID": "1057",
    "SITEID": "701",
    "AGE": 59,
    "AGEU": "YEARS",
    "SEX": "F",
    "RACE": "WHITE",
    "ETHNIC": "HISPANIC OR LATINO",
    "ARM": "Screen Failure",
    "ARMCD": "Scrnfail",
    "ACTARM": "Screen Failure",
    "ACTARMCD": "Scrnfail",
    "RFSTDTC": "",
    "RFENDTC": "",
    "DTHDTC": "",
    "DTHFL": null,
    "COUNTRY": "USA",
    "TRT01P": "Screen Failure",
    "TRT01A": "Screen Failure",
    "TRT01PN": null,
    "TRT01AN": null,
    "AGEGR1": "<65",
    "AGEGR1N": 1,
    "RACEN": 1,
    "TRTSDT": null,
    "TRTEDT": null,
    "TRTDUR": null,
    "EOSSTT": "DISCONTINUED",
    "DCSREAS": "SCREEN FAILURE",
    "DISDT": "2013-12-20",
    "COMP16FL": "N",
    "COMP24FL": "N",
    "COMP8FL": "N",
    "EFFFL": "N",
    "ITTFL": "N",
    "SAFFL": "N",
    "EDUCLVL": null,
    "MMSETOT": null,
    "DISONSDT": null,
    "DURDIS": null,
    "DURDSGR1": ">=12",
    "WEIGHTBL": null,
    "HEIGHTBL": null,
    "BMIBL": null,
    "BMIBLGR1": null,
    "DTHDT": null,
    "SITEGR1": "701"
  },
  {
    "STUDYID": "CDISCPILOT01",
    "USUBJID": "01-701-1097",
    "SUBJID": "1097",
    "SITEID": "701",
    "AGE": 68,
    "AGEU": "YEARS",
    "SEX": "M",
    "RACE": "WHITE",
    "ETHNIC": "NOT HISPANIC OR LATINO",
    "ARM": "Xanomeline Low Dose",
    "ARMCD": "Xan_Lo",
    "ACTARM": "Xanomeline Low Dose",
    "ACTARMCD": "Xan_Lo",
    "RFSTDTC": "2014-01-01",
    "RFENDTC": "2014-07-09",
    "DTHDTC": "",
    "DTHFL": null,
    "COUNTRY": "USA",
    "TRT01P": "Xanomeline Low Dose",
    "TRT01A": "Xanomeline Low Dose",
    "TRT01PN": 1,
    "TRT01AN": 1,
    "AGEGR1": "65-80",
    "AGEGR1N": 2,
    "RACEN": 1,
    "TRTSDT": "2014-01-01",
    "TRTEDT": "2014-07-09",
    "TRTDUR": 190,
    "EOSSTT": "COMPLETED",
    "DCSREAS": null,
    "DISDT": "2014-07-09",
    "COMP16FL": "Y",
    "COMP24FL": "Y",
    "COMP8FL": "Y",
    "EFFFL": "Y",
    "ITTFL": "Y",
    "SAFFL": "Y",
    "EDUCLVL": 18,
    "MMSETOT": null,
    "DISONSDT": "2005-09-22",
    "DURDIS": 99.0226,
    "DURDSGR1": ">=12",
    "WEIGHTBL": 78.02,
    "HEIGHTBL": null,
    "BMIBL": null,
    "BMIBLGR1": null,
    "DTHDT": null,
    "SITEGR1": "701"
  },
  {
    "STUDYID": "CDISCPILOT01",
    "USUBJID": "01-701-1111",
    "SUBJID": "1111",
    "SITEID": "701",
    "AGE": 81,
    "AGEU": "YEARS",
    "SEX": "F",
    "RACE": "WHITE",
    "ETHNIC": "NOT HISPANIC OR LATINO",
    "ARM": "Xanomeline Low Dose",
    "ARMCD": "Xan_Lo",
    "ACTARM": "Xanomeline Low Dose",
    "ACTARMCD": "Xan_Lo",
    "RFSTDTC": "2012-09-07",
    "RFENDTC": "2012-09-17",
    "DTHDTC": "",
    "DTHFL": null,
    "COUNTRY": "USA",
    "TRT01P": "Xanomeline Low Dose",
    "TRT01A": "Xanomeline Low Dose",
    "TRT01PN": 1,
    "TRT01AN": 1,
    "AGEGR1": ">80",
    "AGEGR1N": 3,
    "RACEN": 1,
    "TRTSDT": "2012-09-07",
    "TRTEDT": "2012-09-16",
    "TRTDUR": 10,
    "EOSSTT": "DISCONTINUED",
    "DCSREAS": "ADVERSE EVENT",
    "DISDT": "2012-09-17",
    "COMP16FL": "N",
    "COMP24FL": "N",
    "COMP8FL": "N",
    "EFFFL": "Y",
    "ITTFL": "Y",
    "SAFFL": "Y",
    "EDUCLVL": 22,
    "MMSETOT": null,
    "DISONSDT": "2009-04-04",
    "DURDIS": 40.7064,
    "DURDSGR1": ">=12",
    "WEIGHTBL": 59.88,
    "HEIGHTBL": null,
    "BMIBL": null,
    "BMIBLGR1": null,
    "DTHDT": null,
    "SITEGR1": "701"
  },
  {
    "STUDYID": "CDISCPILOT01",
    "USUBJID": "01-701-1115",
    "SUBJID": "1115",
    "SITEID": "701",
    "AGE": 84,
    "AGEU": "YEARS",
    "SEX": "M",
    "RACE": "WHITE",
    "ETHNIC": "NOT HISPANIC OR LATINO",
    "ARM": "Xanomeline Low Dose",
    "ARMCD": "Xan_Lo",
    "ACTARM": "Xanomeline Low Dose",
    "ACTARMCD": "Xan_Lo",
    "RFSTDTC": "2012-11-30",
    "RFENDTC": "2013-01-23",
    "DTHDTC": "",
    "DTHFL": null,
    "COUNTRY": "USA",
    "TRT01P": "Xanomeline Low Dose",
    "TRT01A": "Xanomeline Low Dose",
    "TRT01PN": 1,
    "TRT01AN": 1,
    "AGEGR1": ">80",
    "AGEGR1N": 3,
    "RACEN": 1,
    "TRTSDT": "2012-11-30",
    "TRTEDT": "2013-01-23",
    "TRTDUR": 55,
    "EOSSTT": "DISCONTINUED",
    "DCSREAS": "ADVERSE EVENT",
    "DISDT": "2013-01-23",
    "COMP16FL": "N",
    "COMP24FL": "N",
    "COMP8FL": "Y",
    "EFFFL": "Y",
    "ITTFL": "Y",
    "SAFFL": "Y",
    "EDUCLVL": 12,
    "MMSETOT": null,
    "DISONSDT": "2004-05-28",
    "DURDIS": 101.8809,
    "DURDSGR1": ">=12",
    "WEIGHTBL": 78.93,
    "HEIGHTBL": null,
    "BMIBL": null,
    "BMIBLGR1": null,
    "DTHDT": null,
    "SITEGR1": "701"
  },
  {
    "STUDYID": "CDISCPILOT01",
    "USUBJID": "01-701-1118",
    "SUBJID": "1118",
    "SITEID": "701",
    "AGE": 52,
    "AGEU": "YEARS",
    "SEX": "M",
    "RACE": "WHITE",
    "ETHNIC": "NOT HISPANIC OR LATINO",
    "ARM": "Placebo",
    "ARMCD": "Pbo",
    "ACTARM": "Placebo",
    "ACTARMCD": "Pbo",
    "RFSTDTC": "2014-03-12",
    "RFENDTC": "2014-09-09",
    "DTHDTC": "",
    "DTHFL": null,
    "COUNTRY": "USA",
    "TRT01P": "Placebo",
    "TRT01A": "Placebo",
    "TRT01PN": 0,
    "TRT01AN": 0,
    "AGEGR1": "<65",
    "AGEGR1N": 1,
    "RACEN": 1,
    "TRTSDT": "2014-03-12",
    "TRTEDT": "2014-09-09",
    "TRTDUR": 182,
    "EOSSTT": "COMPLETED",
    "DCSREAS": null,
    "DISDT": "2014-09-09",
    "COMP16FL": "Y",
    "COMP24FL": "Y",
    "COMP8FL": "Y",
    "EFFFL": "Y",
    "ITTFL": "Y",
    "SAFFL": "Y",
    "EDUCLVL": 14,
    "MMSETOT": null,
    "DISONSDT": "2010-06-24",
    "DURDIS": 44.1561,
    "DURDSGR1": ">=12",
    "WEIGHTBL": 71.22,
    "HEIGHTBL": null,
    "BMIBL": null,
    "BMIBLGR1": null,
    "DTHDT": null,
    "SITEGR1": "701"
  },
  {
    "STUDYID": "CDISCPILOT01",
    "USUBJID": "01-701-1130",
    "SUBJID": "1130",
    "SITEID": "701",
    "AGE": 84,
    "AGEU": "YEARS",
    "SEX": "M",
    "RACE": "WHITE",
    "ETHNIC": "NOT HISPANIC OR LATINO",
    "ARM": "Placebo",
    "ARMCD": "Pbo",
    "ACTARM": "Placebo",
    "ACTARMCD": "Pbo",
    "RFSTDTC": "2014-02-15",
    "RFENDTC": "2014-08-16",
    "DTHDTC": "",
    "DTHFL": null,
    "COUNTRY": "USA",
    "TRT01P": "Placebo",
    "TRT01A": "Placebo",
    "TRT01PN": 0,
    "TRT01AN": 0,
    "AGEGR1": ">80",
    "AGEGR1N": 3,
    "RACEN": 1,
    "TRTSDT": "2014-02-15",
    "TRTEDT": "2014-08-16",
    "TRTDUR": 183,
    "EOSSTT": "COMPLETED",
    "DCSREAS": null,
    "DISDT": "2014-08-16",
    "COMP16FL": "Y",
    "COMP24FL": "Y",
    "COMP8FL": "Y",
    "EFFFL": "Y",
    "ITTFL": "Y",
    "SAFFL": "Y",
    "EDUCLVL": 12,
    "MMSETOT": null,
    "DISONSDT": "2010-05-22",
    "DURDIS": 44.6489,
    "DURDSGR1": ">=12",
    "WEIGHTBL": 79.38,
    "HEIGHTBL": null,
    "BMIBL": null,
    "BMIBLGR1": null,
    "DTHDT": null,
    "SITEGR1": "701"
  },
  {
    "STUDYID": "CDISCPILOT01",
    "USUBJID": "01-701-1133",
    "SUBJID": "1133",
    "SITEID": "701",
    "AGE": 81,
    "AGEU": "YEARS",
    "SEX": "F",
    "RACE": "WHITE",
    "ETHNIC": "NOT HISPANIC OR LATINO",
    "ARM": "Xanomeline High Dose",
    "ARMCD": "Xan_Hi",
    "ACTARM": "Xanomeline High Dose",
    "ACTARMCD": "Xan_Hi",
    "RFSTDTC": "2012-10-28",
    "RFENDTC": "2013-04-29",
    "DTHDTC": "",
    "DTHFL": null,
    "COUNTRY": "USA",
    "TRT01P": "Xanomeline High Dose",
    "TRT01A": "Xanomeline High Dose",
    "TRT01PN": 2,
    "TRT01AN": 2,
    "AGEGR1": ">80",
    "AGEGR1N": 3,
    "RACEN": 1,
    "TRTSDT": "2012-10-28",
    "TRTEDT": "2013-04-28",
    "TRTDUR": 183,
    "EOSSTT": "COMPLETED",
    "DCSREAS": null,
    "DISDT": "2013-04-29",
    "COMP16FL": "Y",
    "COMP24FL": "Y",
    "COMP8FL": "Y",
    "EFFFL": "Y",
    "ITTFL": "Y",
    "SAFFL": "Y",
    "EDUCLVL": 10,
    "MMSETOT": null,
    "DISONSDT": "2010-03-11",
    "DURDIS": 31.4415,
    "DURDSGR1": ">=12",
    "WEIGHTBL": 74.39,
    "HEIGHTBL": null,
    "BMIBL": null,
    "BMIBLGR1": null,
    "DTHDT": null,
    "SITEGR1": "701"
  },
  {
    "STUDYID": "CDISCPILOT01",
    "USUBJID": "01-701-1145",
    "SUBJID": "1145",
    "SITEID": "701",
    "AGE": 57,
    "AGEU": "YEARS",
    "SEX": "F",
    "RACE": "WHITE",
    "ETHNIC": "NOT HISPANIC OR LATINO",
    "ARM": "Screen Failure",
    "ARMCD": "Scrnfail",
    "ACTARM": "Screen Failure",
    "ACTARMCD": "Scrnfail",
    "RFSTDTC": "",
    "RFENDTC": "",
    "DTHDTC": "",
    "DTHFL": null,
    "COUNTRY": "USA",
    "TRT01P": "Screen Failure",
    "TRT01A": "Screen Failure",
    "TRT01PN": null,
    "TRT01AN": null,
    "AGEGR1": "<65",
    "AGEGR1N": 1,
    "RACEN": 1,
    "TRTSDT": null,
    "TRTEDT": null,
    "TRTDUR": null,
    "EOSSTT": "DISCONTINUED",
    "DCSREAS": "SCREEN FAILURE",
    "DISDT": "2013-09-05",
    "COMP16FL": "N",
    "COMP24FL": "N",
    "COMP8FL": "N",
    "EFFFL": "N",
    "ITTFL": "N",
    "SAFFL": "N",
    "EDUCLVL": null,
    "MMSETOT": null,
    "DISONSDT": null,
    "DURDIS": null,
    "DURDSGR1": ">=12",
    "WEIGHTBL": null,
    "HEIGHTBL": null,
    "BMIBL": null,
    "BMIBLGR1": null,
    "DTHDT": null,
    "SITEGR1": "701"
  },
  {
    "STUDYID": "CDISCPILOT01",
    "USUBJID": "01-701-1146",
    "SUBJID": "1146",
    "SITEID": "701",
    "AGE": 75,
    "AGEU": "YEARS",
    "SEX": "F",
    "RACE": "WHITE",
    "ETHNIC": "NOT HISPANIC OR LATINO",
    "ARM": "Xanomeline High Dose",
    "ARMCD": "Xan_Hi",
    "ACTARM": "Xanomeline High Dose",
    "ACTARMCD": "Xan_Hi",
    "RFSTDTC": "2013-05-20",
    "RFENDTC": "2013-06-30",
    "DTHDTC": "",
    "DTHFL": null,
    "COUNTRY": "USA",
    "TRT01P": "Xanomeline High Dose",
    "TRT01A": "Xanomeline High Dose",
    "TRT01PN": 2,
    "TRT01AN": 2,
    "AGEGR1": "65-80",
    "AGEGR1N": 2,
    "RACEN": 1,
    "TRTSDT": "2013-05-20",
    "TRTEDT": "2013-06-26",
    "TRTDUR": 38,
    "EOSSTT": "DISCONTINUED",
    "DCSREAS": "ADVERSE EVENT",
    "DISDT": "2013-06-30",
    "COMP16FL": "N",
    "COMP24FL": "N",
    "COMP8FL": "N",
    "EFFFL": "Y",
    "ITTFL": "Y",
    "SAFFL": "Y",
    "EDUCLVL": 16,
    "MMSETOT": null,
    "DISONSDT": "2009-11-17",
    "DURDIS": 41.6263,
    "DURDSGR1": ">=12",
    "WEIGHTBL": 53.98,
    "HEIGHTBL": null,
    "BMIBL": null,
    "BMIBLGR1": null,
    "DTHDT": null,
    "SITEGR1": "701"
  },
  {
    "STUDYID": "CDISCPILOT01",
    "USUBJID": "01-701-1148",
    "SUBJID": "1148",
    "SITEID": "701",
    "AGE": 57,
    "AGEU": "YEARS",
    "SEX": "M",
    "RACE": "WHITE",
    "ETHNIC": "NOT HISPANIC OR LATINO",
    "ARM": "Xanomeline High Dose",
    "ARMCD": "Xan_Hi",
    "ACTARM": "Xanomeline High Dose",
    "ACTARMCD": "Xan_Hi",
    "RFSTDTC": "2013-08-23",
    "RFENDTC": "2014-02-20",
    "DTHDTC": "",
    "DTHFL": null,
    "COUNTRY": "USA",
    "TRT01P": "Xanomeline High Dose",
    "TRT01A": "Xanomeline High Dose",
    "TRT01PN": 2,
    "TRT01AN": 2,
    "AGEGR1": "<65",
    "AGEGR1N": 1,
    "RACEN": 1,
    "TRTSDT": "2013-08-23",
    "TRTEDT": "2014-02-20",
    "TRTDUR": 182,
    "EOSSTT": "COMPLETED",
    "DCSREAS": null,
    "DISDT": "2014-02-20",
    "COMP16FL": "Y",
    "COMP24FL": "Y",
    "COMP8FL": "Y",
    "EFFFL": "Y",
    "ITTFL": "Y",
    "SAFFL": "Y",
    "EDUCLVL": 15,
    "MMSETOT": null,
    "DISONSDT": "2010-12-12",
    "DURDIS": 32.0657,
    "DURDSGR1": ">=12",
    "WEIGHTBL": 87.09,
    "HEIGHTBL": null,
    "BMIBL": null,
    "BMIBLGR1": null,
    "DTHDT": null,
    "SITEGR1": "701"
  },
  {
    "STUDYID": "CDISCPILOT01",
    "USUBJID": "01-701-1153",
    "SUBJID": "1153",
    "SITEID": "701",
    "AGE": 79,
    "AGEU": "YEARS",
    "SEX": "F",
    "RACE": "WHITE",
    "ETHNIC": "NOT HISPANIC OR LATINO",
    "ARM": "Placebo",
    "ARMCD": "Pbo",
    "ACTARM": "Placebo",
    "ACTARMCD": "Pbo",
    "RFSTDTC": "2013-09-23",
    "RFENDTC": "2014-04-01",
    "DTHDTC": "",
    "DTHFL": null,
    "COUNTRY": "USA",
    "TRT01P": "Placebo",
    "TRT01A": "Placebo",
    "TRT01PN": 0,
    "TRT01AN": 0,
    "AGEGR1": "65-80",
    "AGEGR1N": 2,
    "RACEN": 1,
    "TRTSDT": "2013-09-23",
    "TRTEDT": "2014-03-16",
    "TRTDUR": 175,
    "EOSSTT": "COMPLETED",
    "DCSREAS": null,
    "DISDT": "2014-04-01",
    "COMP16FL": "Y",
    "COMP24FL": "Y",
    "COMP8FL": "Y",
    "EFFFL": "Y",
    "ITTFL": "Y",
    "SAFFL": "Y",
    "EDUCLVL": 6,
    "MMSETOT": null,
    "DISONSDT": "2005-05-13",
    "DURDIS": 99.8111,
    "DURDSGR1": ">=12",
    "WEIGHTBL": 58.06,
    "HEIGHTBL": null,
    "BMIBL": null,
    "BMIBLGR1": null,
    "DTHDT": null,
    "SITEGR1": "701"
  },
  {
    "STUDYID": "CDISCPILOT01",
    "USUBJID": "01-701-1162",
    "SUBJID": "1162",
    "SITEID": "701",
    "AGE": 82,
    "AGEU": "YEARS",
    "SEX": "F",
    "RACE": "WHITE",
    "ETHNIC": "NOT HISPANIC OR LATINO",
    "ARM": "Screen Failure",
    "ARMCD": "Scrnfail",
    "ACTARM": "Screen Failure",
    "ACTARMCD": "Scrnfail",
    "RFSTDTC": "",
    "RFENDTC": "",
    "DTHDTC": "",
    "DTHFL": null,
    "COUNTRY": "USA",
    "TRT01P": "Screen Failure",
    "TRT01A": "Screen Failure",
    "TRT01PN": null,
    "TRT01AN": null,
    "AGEGR1": ">80",
    "AGEGR1N": 3,
    "RACEN": 1,
    "TRTSDT": null,
    "TRTEDT": null,
    "TRTDUR": null,
    "EOSSTT": "DISCONTINUED",
    "DCSREAS": "SCREEN FAILURE",
    "DISDT": "2013-04-18",
    "COMP16FL": "N",
    "COMP24FL": "N",
    "COMP8FL": "N",
    "EFFFL": "N",
    "ITTFL": "N",
    "SAFFL": "N",
    "EDUCLVL": null,
    "MMSETOT": null,
    "DISONSDT": null,
    "DURDIS": null,
    "DURDSGR1": ">=12",
    "WEIGHTBL": null,
    "HEIGHTBL": null,
    "BMIBL": null,
    "BMIBLGR1": null,
    "DTHDT": null,
    "SITEGR1": "701"
  },
  {
    "STUDYID": "CDISCPILOT01",
    "USUBJID": "01-701-1176",
    "SUBJID": "1176",
    "SITEID": "701",
    "AGE": 62,
    "AGEU": "YEARS",
    "SEX": "F",
    "RACE": "AMERICAN INDIAN OR ALASKA NATIVE",
    "ETHNIC": "NOT HISPANIC OR LATINO",
    "ARM": "Screen Failure",
    "ARMCD": "Scrnfail",
    "ACTARM": "Screen Failure",
    "ACTARMCD": "Scrnfail",
    "RFSTDTC": "",
    "RFENDTC": "",
    "DTHDTC": "",
    "DTHFL": null,
    "COUNTRY": "USA",
    "TRT01P": "Screen Failure",
    "TRT01A": "Screen Failure",
    "TRT01PN": null,
    "TRT01AN": null,
    "AGEGR1": "<65",
    "AGEGR1N": 1,
    "RACEN": 6,
    "TRTSDT": null,
    "TRTEDT": null,
    "TRTDUR": null,
    "EOSSTT": "DISCONTINUED",
    "DCSREAS": "SCREEN FAILURE",
    "DISDT": "2012-09-30",
    "COMP16FL": "N",
    "COMP24FL": "N",
    "COMP8FL": "N",
    "EFFFL": "N",
    "ITTFL": "N",
    "SAFFL": "N",
    "EDUCLVL": null,
    "MMSETOT": null,
    "DISONSDT": null,
    "DURDIS": null,
    "DURDSGR1": ">=12",
    "WEIGHTBL": null,
    "HEIGHTBL": null,
    "BMIBL": null,
    "BMIBLGR1": null,
    "DTHDT": null,
    "SITEGR1": "701"
  },
  {
    "STUDYID": "CDISCPILOT01",
    "USUBJID": "01-701-1180",
    "SUBJID": "1180",
    "SITEID": "701",
    "AGE": 56,
    "AGEU": "YEARS",
    "SEX": "M",
    "RACE": "WHITE",
    "ETHNIC": "NOT HISPANIC OR LATINO",
    "ARM": "Xanomeline High Dose",
    "ARMCD": "Xan_Hi",
    "ACTARM": "Xanomeline High Dose",
    "ACTARMCD": "Xan_Hi",
    "RFSTDTC": "2013-02-12",
    "RFENDTC": "2013-03-23",
    "DTHDTC": "",
    "DTHFL": null,
    "COUNTRY": "USA",
    "TRT01P": "Xanomeline High Dose",
    "TRT01A": "Xanomeline High Dose",
    "TRT01PN": 2,
    "TRT01AN": 2,
    "AGEGR1": "<65",
    "AGEGR1N": 1,
    "RACEN": 1,
    "TRTSDT": "2013-02-12",
    "TRTEDT": "2013-03-18",
    "TRTDUR": 35,
    "EOSSTT": "DISCONTINUED",
    "DCSREAS": "ADVERSE EVENT",
    "DISDT": "2013-03-23",
    "COMP16FL": "N",
    "COMP24FL": "N",
    "COMP8FL": "N",
    "EFFFL": "Y",
    "ITTFL": "Y",
    "SAFFL": "Y",
    "EDUCLVL": 16,
    "MMSETOT": null,
    "DISONSDT": "2008-09-21",
    "DURDIS": 52.2382,
    "DURDSGR1": ">=12",
    "WEIGHTBL": 89.81,
    "HEIGHTBL": null,
    "BMIBL": null,
    "BMIBLGR1": null,
    "DTHDT": null,
    "SITEGR1": "701"
  },
  {
    "STUDYID": "CDISCPILOT01",
    "USUBJID": "01-701-1181",
    "SUBJID": "1181",
    "SITEID": "701",
    "AGE": 79,
    "AGEU": "YEARS",
    "SEX": "F",
    "RACE": "WHITE",
    "ETHNIC": "NOT HISPANIC OR LATINO",
    "ARM": "Xanomeline High Dose",
    "ARMCD": "Xan_Hi",
    "ACTARM": "Xanomeline Low Dose",
    "ACTARMCD": "Xan_Lo",
    "RFSTDTC": "2013-12-05",
    "RFENDTC": "2013-12-12",
    "DTHDTC": "",
    "DTHFL": null,
    "COUNTRY": "USA",
    "TRT01P": "Xanomeline High Dose",
    "TRT01A": "Xanomeline Low Dose",
    "TRT01PN": 2,
    "TRT01AN": 1,
    "AGEGR1": "65-80",
    "AGEGR1N": 2,
    "RACEN": 1,
    "TRTSDT": "2013-12-05",
    "TRTEDT": "2013-12-09",
    "TRTDUR": 5,
    "EOSSTT": "DISCONTINUED",
    "DCSREAS": "ADVERSE EVENT",
    "DISDT": "2013-12-12",
    "COMP16FL": "N",
    "COMP24FL": "N",
    "COMP8FL": "N",
    "EFFFL": "Y",
    "ITTFL": "Y",
    "SAFFL": "Y",
    "EDUCLVL": 15,
    "MMSETOT": null,
    "DISONSDT": "2008-08-26",
    "DURDIS": 63.0144,
    "DURDSGR1": ">=12",
    "WEIGHTBL": 66.68,
    "HEIGHTBL": null,
    "BMIBL": null,
    "BMIBLGR1": null,
    "DTHDT": null,
    "SITEGR1": "701"
  },
  {
    "STUDYID": "CDISCPILOT01",
    "USUBJID": "01-701-1188",
    "SUBJID": "1188",
    "SITEID": "701",
    "AGE": 71,
    "AGEU": "YEARS",
    "SEX": "M",
    "RACE": "WHITE",
    "ETHNIC": "NOT HISPANIC OR LATINO",
    "ARM": "Xanomeline Low Dose",
    "ARMCD": "Xan_Lo",
    "ACTARM": "Xanomeline Low Dose",
    "ACTARMCD": "Xan_Lo",
    "RFSTDTC": "2013-02-15",
    "RFENDTC": "2013-03-25",
    "DTHDTC": "",
    "DTHFL": null,
    "COUNTRY": "USA",
    "TRT01P": "Xanomeline Low Dose",
    "TRT01A": "Xanomeline Low Dose",
    "TRT01PN": 1,
    "TRT01AN": 1,
    "AGEGR1": "65-80",
    "AGEGR1N": 2,
    "RACEN": 1,
    "TRTSDT": "2013-02-15",
    "TRTEDT": "2013-03-24",
    "TRTDUR": 38,
    "EOSSTT": "DISCONTINUED",
    "DCSREAS": "ADVERSE EVENT",
    "DISDT": "2013-03-25",
    "COMP16FL": "N",
    "COMP24FL": "N",
    "COMP8FL": "N",
    "EFFFL": "Y",
    "ITTFL": "Y",
    "SAFFL": "Y",
    "EDUCLVL": 16,
    "MMSETOT": null,
    "DISONSDT": "2005-09-14",
    "DURDIS": 88.6735,
    "DURDSGR1": ">=12",
    "WEIGHTBL": 101.15,
    "HEIGHTBL": null,
    "BMIBL": null,
    "BMIBLGR1": null,
    "DTHDT": null,
    "SITEGR1": "701"
  },
  {
    "STUDYID": "CDISCPILOT01",
    "USUBJID": "01-701-1192",
    "SUBJID": "1192",
    "SITEID": "701",
    "AGE": 80,
    "AGEU": "YEARS",
    "SEX": "F",
    "RACE": "WHITE",
    "ETHNIC": "NOT HISPANIC OR LATINO",
    "ARM": "Xanomeline Low Dose",
    "ARMCD": "Xan_Lo",
    "ACTARM": "Xanomeline Low Dose",
    "ACTARMCD": "Xan_Lo",
    "RFSTDTC": "2012-07-22",
    "RFENDTC": "2013-01-20",
    "DTHDTC": "",
    "DTHFL": null,
    "COUNTRY": "USA",
    "TRT01P": "Xanomeline Low Dose",
    "TRT01A": "Xanomeline Low Dose",
    "TRT01PN": 1,
    "TRT01AN": 1,
    "AGEGR1": "65-80",
    "AGEGR1N": 2,
    "RACEN": 1,
    "TRTSDT": "2012-07-22",
    "TRTEDT": "2013-01-20",
    "TRTDUR": 183,
    "EOSSTT": "COMPLETED",
    "DCSREAS": null,
    "DISDT": "2013-01-20",
    "COMP16FL": "Y",
    "COMP24FL": "Y",
    "COMP8FL": "Y",
    "EFFFL": "Y",
    "ITTFL": "Y",
    "SAFFL": "Y",
    "EDUCLVL": 12,
    "MMSETOT": null,
    "DISONSDT": "2009-03-15",
    "DURDIS": 39.7864,
    "DURDSGR1": ">=12",
    "WEIGHTBL": 63.5,
    "HEIGHTBL": null,
    "BMIBL": null,
    "BMIBLGR1": null,
    "DTHDT": null,
    "SITEGR1": "701"
  },
  {
    "STUDYID": "CDISCPILOT01",
    "USUBJID": "01-701-1203",
    "SUBJID": "1203",
    "SITEID": "701",
    "AGE": 81,
    "AGEU": "YEARS",
    "SEX": "F",
    "RACE": "BLACK OR AFRICAN AMERICAN",
    "ETHNIC": "NOT HISPANIC OR LATINO",
    "ARM": "Placebo",
    "ARMCD": "Pbo",
    "ACTARM": "Placebo",
    "ACTARMCD": "Pbo",
    "RFSTDTC": "2013-02-02",
    "RFENDTC": "2013-08-03",
    "DTHDTC": "",
    "DTHFL": null,
    "COUNTRY": "USA",
    "TRT01P": "Placebo",
    "TRT01A": "Placebo",
    "TRT01PN": 0,
    "TRT01AN": 0,
    "AGEGR1": ">80",
    "AGEGR1N": 3,
    "RACEN": 2,
    "TRTSDT": "2013-02-02",
    "TRTEDT": "2013-08-03",
    "TRTDUR": 183,
    "EOSSTT": "COMPLETED",
    "DCSREAS": null,
    "DISDT": "2013-08-03",
    "COMP16FL": "Y",
    "COMP24FL": "Y",
    "COMP8FL": "Y",
    "EFFFL": "Y",
    "ITTFL": "Y",
    "SAFFL": "Y",
    "EDUCLVL": 13,
    "MMSETOT": null,
    "DISONSDT": "2011-04-19",
    "DURDIS": 21.2567,
    "DURDSGR1": ">=12",
    "WEIGHTBL": 66.23,
    "HEIGHTBL": null,
    "BMIBL": null,
    "BMIBLGR1": null,
    "DTHDT": null,
    "SITEGR1": "701"
  },
  {
    "STUDYID": "CDISCPILOT01",
    "USUBJID": "01-701-1211",
    "SUBJID": "1211",
    "SITEID": "701",
    "AGE": 76,
    "AGEU": "YEARS",
    "SEX": "F",
    "RACE": "WHITE",
    "ETHNIC": "NOT HISPANIC OR LATINO",
    "ARM": "Xanomeline Low Dose",
    "ARMCD": "Xan_Lo",
    "ACTARM": "Xanomeline Low Dose",
    "ACTARMCD": "Xan_Lo",
    "RFSTDTC": "2012-11-15",
    "RFENDTC": "2013-01-14",
    "DTHDTC": "2013-01-14",
    "DTHFL": "Y",
    "COUNTRY": "USA",
    "TRT01P": "Xanomeline Low Dose",
    "TRT01A": "Xanomeline Low Dose",
    "TRT01PN": 1,
    "TRT01AN": 1,
    "AGEGR1": "65-80",
    "AGEGR1N": 2,
    "RACEN": 1,
    "TRTSDT": "2012-11-15",
    "TRTEDT": "2013-01-12",
    "TRTDUR": 59,
    "EOSSTT": "DISCONTINUED",
    "DCSREAS": "DEATH",
    "DISDT": "2013-01-14",
    "COMP16FL": "N",
    "COMP24FL": "N",
    "COMP8FL": "Y",
    "EFFFL": "Y",
    "ITTFL": "Y",
    "SAFFL": "Y",
    "EDUCLVL": 12,
    "MMSETOT": null,
    "DISONSDT": "2010-03-19",
    "DURDIS": 31.4086,
    "DURDSGR1": ">=12",
    "WEIGHTBL": 45.36,
    "HEIGHTBL": null,
    "BMIBL": null,
    "BMIBLGR1": null,
    "DTHDT": "2013-01-14",
    "SITEGR1": "701"
  },
  {
    "STUDYID": "CDISCPILOT01",
    "USUBJID": "01-701-1234",
    "SUBJID": "1234",
    "SITEID": "701",
    "AGE": 69,
    "AGEU": "YEARS",
    "SEX": "M",
    "RACE": "WHITE",
    "ETHNIC": "NOT HISPANIC OR LATINO",
    "ARM": "Placebo",
    "ARMCD": "Pbo",
    "ACTARM": "Placebo",
    "ACTARMCD": "Pbo",
    "RFSTDTC": "2013-03-30",
    "RFENDTC": "2013-09-22",
    "DTHDTC": "",
    "DTHFL": null,
    "COUNTRY": "USA",
    "TRT01P": "Placebo",
    "TRT01A": "Placebo",
    "TRT01PN": 0,
    "TRT01AN": 0,
    "AGEGR1": "65-80",
    "AGEGR1N": 2,
    "RACEN": 1,
    "TRTSDT": "2013-03-30",
    "TRTEDT": "2013-09-22",
    "TRTDUR": 177,
    "EOSSTT": "COMPLETED",
    "DCSREAS": null,
    "DISDT": "2013-09-22",
    "COMP16FL": "Y",
    "COMP24FL": "Y",
    "COMP8FL": "Y",
    "EFFFL": "Y",
    "ITTFL": "Y",
    "SAFFL": "Y",
    "EDUCLVL": 18,
    "MMSETOT": null,
    "DISONSDT": "2006-08-11",
    "DURDIS": 79.2772,
    "DURDSGR1": ">=12",
    "WEIGHTBL": 77.11,
    "HEIGHTBL": null,
    "BMIBL": null,
    "BMIBLGR1": null,
    "DTHDT": null,
    "SITEGR1": "701"
  },
  {
    "STUDYID": "CDISCPILOT01",
    "USUBJID": "01-701-1239",
    "SUBJID": "1239",
    "SITEID": "701",
    "AGE": 56,
    "AGEU": "YEARS",
    "SEX": "M",
    "RACE": "WHITE",
    "ETHNIC": "HISPANIC OR LATINO",
    "ARM": "Xanomeline High Dose",
    "ARMCD": "Xan_Hi",
    "ACTARM": "Xanomeline High Dose",
    "ACTARMCD": "Xan_Hi",
    "RFSTDTC": "2014-01-11",
    "RFENDTC": "2014-07-11",
    "DTHDTC": "",
    "DTHFL": null,
    "COUNTRY": "USA",
    "TRT01P": "Xanomeline High Dose",
    "TRT01A": "Xanomeline High Dose",
    "TRT01PN": 2,
    "TRT01AN": 2,
    "AGEGR1": "<65",
    "AGEGR1N": 1,
    "RACEN": 1,
    "TRTSDT": "2014-01-11",
    "TRTEDT": "2014-07-10",
    "TRTDUR": 181,
    "EOSSTT": "COMPLETED",
    "DCSREAS": null,
    "DISDT": "2014-07-11",
    "COMP16FL": "Y",
    "COMP24FL": "Y",
    "COMP8FL": "Y",
    "EFFFL": "Y",
    "ITTFL": "Y",
    "SAFFL": "Y",
    "EDUCLVL": 11,
    "MMSETOT": null,
    "DISONSDT": "2003-09-23",
    "DURDIS": 123.1704,
    "DURDSGR1": ">=12",
    "WEIGHTBL": 95.94,
    "HEIGHTBL": null,
    "BMIBL": null,
    "BMIBLGR1": null,
    "DTHDT": null,
    "SITEGR1": "701"
  },
  {
    "STUDYID": "CDISCPILOT01",
    "USUBJID": "01-701-1240",
    "SUBJID": "1240",
    "SITEID": "701",
    "AGE": 57,
    "AGEU": "YEARS",
    "SEX": "F",
    "RACE": "BLACK OR AFRICAN AMERICAN",
    "ETHNIC": "NOT HISPANIC OR LATINO",
    "ARM": "Screen Failure",
    "ARMCD": "Scrnfail",
    "ACTARM": "Screen Failure",
    "ACTARMCD": "Scrnfail",
    "RFSTDTC": "",
    "RFENDTC": "",
    "DTHDTC": "",
    "DTHFL": null,
    "COUNTRY": "USA",
    "TRT01P": "Screen Failure",
    "TRT01A": "Screen Failure",
    "TRT01PN": null,
    "TRT01AN": null,
    "AGEGR1": "<65",
    "AGEGR1N": 1,
    "RACEN": 2,
    "TRTSDT": null,
    "TRTEDT": null,
    "TRTDUR": null,
    "EOSSTT": "DISCONTINUED",
    "DCSREAS": "SCREEN FAILURE",
    "DISDT": "2013-09-22",
    "COMP16FL": "N",
    "COMP24FL": "N",
    "COMP8FL": "N",
    "EFFFL": "N",
    "ITTFL": "N",
    "SAFFL": "N",
    "EDUCLVL": null,
    "MMSETOT": null,
    "DISONSDT": null,
    "DURDIS": null,
    "DURDSGR1": ">=12",
    "WEIGHTBL": null,
    "HEIGHTBL": null,
    "BMIBL": null,
    "BMIBLGR1": null,
    "DTHDT": null,
    "SITEGR1": "701"
  },
  {
    "STUDYID": "CDISCPILOT01",
    "USUBJID": "01-701-1275",
    "SUBJID": "1275",
    "SITEID": "701",
    "AGE": 61,
    "AGEU": "YEARS",
    "SEX": "M",
    "RACE": "AMERICAN INDIAN OR ALASKA NATIVE",
    "ETHNIC": "NOT HISPANIC OR LATINO",
    "ARM": "Xanomeline High Dose",
    "ARMCD": "Xan_Hi",
    "ACTARM": "Xanomeline High Dose",
    "ACTARMCD": "Xan_Hi",
    "RFSTDTC": "2014-02-07",
    "RFENDTC": "2014-06-14",
    "DTHDTC": "",
    "DTHFL": null,
    "COUNTRY": "USA",
    "TRT01P": "Xanomeline High Dose",
    "TRT01A": "Xanomeline High Dose",
    "TRT01PN": 2,
    "TRT01AN": 2,
    "AGEGR1": "<65",
    "AGEGR1N": 1,
    "RACEN": 6,
    "TRTSDT": "2014-02-07",
    "TRTEDT": "2014-05-31",
    "TRTDUR": 114,
    "EOSSTT": "DISCONTINUED",
    "DCSREAS": "WITHDRAWAL BY SUBJECT",
    "DISDT": "2014-06-14",
    "COMP16FL": "Y",
    "COMP24FL": "N",
    "COMP8FL": "Y",
    "EFFFL": "Y",
    "ITTFL": "Y",
    "SAFFL": "Y",
    "EDUCLVL": 12,
    "MMSETOT": null,
    "DISONSDT": "2011-09-17",
    "DURDIS": 28.2875,
    "DURDSGR1": ">=12",
    "WEIGHTBL": 68.95,
    "HEIGHTBL": null,
    "BMIBL": null,
    "BMIBLGR1": null,
    "DTHDT": null,
    "SITEGR1": "701"
  },
  {
    "STUDYID": "CDISCPILOT01",
    "USUBJID": "01-701-1287",
    "SUBJID": "1287",
    "SITEID": "701",
    "AGE": 56,
    "AGEU": "YEARS",
    "SEX": "F",
    "RACE": "WHITE",
    "ETHNIC": "HISPANIC OR LATINO",
    "ARM": "Xanomeline High Dose",
    "ARMCD": "Xan_Hi",
    "ACTARM": "Xanomeline High Dose",
    "ACTARMCD": "Xan_Hi",
    "RFSTDTC": "2014-01-25",
    "RFENDTC": "2014-07-26",
    "DTHDTC": "",
    "DTHFL": null,
    "COUNTRY": "USA",
    "TRT01P": "Xanomeline High Dose",
    "TRT01A": "Xanomeline High Dose",
    "TRT01PN": 2,
    "TRT01AN": 2,
    "AGEGR1": "<65",
    "AGEGR1N": 1,
    "RACEN": 1,
    "TRTSDT": "2014-01-25",
    "TRTEDT": "2014-07-26",
    "TRTDUR": 183,
    "EOSSTT": "COMPLETED",
    "DCSREAS": null,
    "DISDT": "2014-07-26",
    "COMP16FL": "Y",
    "COMP24FL": "Y",
    "COMP8FL": "Y",
    "EFFFL": "Y",
    "ITTFL": "Y",
    "SAFFL": "Y",
    "EDUCLVL": 14,
    "MMSETOT": null,
    "DISONSDT": "2009-10-30",
    "DURDIS": 50.5955,
    "DURDSGR1": ">=12",
    "WEIGHTBL": 56.25,
    "HEIGHTBL": null,
    "BMIBL": null,
    "BMIBLGR1": null,
    "DTHDT": null,
    "SITEGR1": "701"
  },
  {
    "STUDYID": "CDISCPILOT01",
    "USUBJID": "01-701-1294",
    "SUBJID": "1294",
    "SITEID": "701",
    "AGE": 67,
    "AGEU": "YEARS",
    "SEX": "M",
    "RACE": "WHITE",
    "ETHNIC": "NOT HISPANIC OR LATINO",
    "ARM": "Xanomeline Low Dose",
    "ARMCD": "Xan_Lo",
    "ACTARM": "Xanomeline Low Dose",
    "ACTARMCD": "Xan_Lo",
    "RFSTDTC": "2013-03-24",
    "RFENDTC": "2013-06-14",
    "DTHDTC": "",
    "DTHFL": null,
    "COUNTRY": "USA",
    "TRT01P": "Xanomeline Low Dose",
    "TRT01A": "Xanomeline Low Dose",
    "TRT01PN": 1,
    "TRT01AN": 1,
    "AGEGR1": "65-80",
    "AGEGR1N": 2,
    "RACEN": 1,
    "TRTSDT": "2013-03-24",
    "TRTEDT": "2013-06-14",
    "TRTDUR": 83,
    "EOSSTT": "DISCONTINUED",
    "DCSREAS": "ADVERSE EVENT",
    "DISDT": "2013-06-14",
    "COMP16FL": "N",
    "COMP24FL": "N",
    "COMP8FL": "Y",
    "EFFFL": "Y",
    "ITTFL": "Y",
    "SAFFL": "Y",
    "EDUCLVL": 16,
    "MMSETOT": null,
    "DISONSDT": "2011-09-09",
    "DURDIS": 18.2341,
    "DURDSGR1": ">=12",
    "WEIGHTBL": 78.47,
    "HEIGHTBL": null,
    "BMIBL": null,
    "BMIBLGR1": null,
    "DTHDT": null,
    "SITEGR1": "701"
  },
  {
    "STUDYID": "CDISCPILOT01",
    "USUBJID": "01-701-1302",
    "SUBJID": "1302",
    "SITEID": "701",
    "AGE": 61,
    "AGEU": "YEARS",
    "SEX": "M",
    "RACE": "WHITE",
    "ETHNIC": "NOT HISPANIC OR LATINO",
    "ARM": "Xanomeline High Dose",
    "ARMCD": "Xan_Hi",
    "ACTARM": "Xanomeline High Dose",
    "ACTARMCD": "Xan_Hi",
    "RFSTDTC": "2013-08-29",
    "RFENDTC": "2013-11-05",
    "DTHDTC": "",
    "DTHFL": null,
    "COUNTRY": "USA",
    "TRT01P": "Xanomeline High Dose",
    "TRT01A": "Xanomeline High Dose",
    "TRT01PN": 2,
    "TRT01AN": 2,
    "AGEGR1": "<65",
    "AGEGR1N": 1,
    "RACEN": 1,
    "TRTSDT": "2013-08-29",
    "TRTEDT": "2013-11-05",
    "TRTDUR": 69,
    "EOSSTT": "DISCONTINUED",
    "DCSREAS": "ADVERSE EVENT",
    "DISDT": "2013-11-05",
    "COMP16FL": "N",
    "COMP24FL": "N",
    "COMP8FL": "Y",
    "EFFFL": "Y",
    "ITTFL": "Y",
    "SAFFL": "Y",
    "EDUCLVL": 15,
    "MMSETOT": null,
    "DISONSDT": "2007-02-09",
    "DURDIS": 78.3244,
    "DURDSGR1": ">=12",
    "WEIGHTBL": 82.1,
    "HEIGHTBL": null,
    "BMIBL": null,
    "BMIBLGR1": null,
    "DTHDT": null,
    "SITEGR1": "701"
  },
  {
    "STUDYID": "CDISCPILOT01",
    "USUBJID": "01-701-1307",
    "SUBJID": "1307",
    "SITEID": "701",
    "AGE": 80,
    "AGEU": "YEARS",
    "SEX": "F",
    "RACE": "WHITE",
    "ETHNIC": "NOT HISPANIC OR LATINO",
    "ARM": "Screen Failure",
    "ARMCD": "Scrnfail",
    "ACTARM": "Screen Failure",
    "ACTARMCD": "Scrnfail",
    "RFSTDTC": "",
    "RFENDTC": "",
    "DTHDTC": "",
    "DTHFL": null,
    "COUNTRY": "USA",
    "TRT01P": "Screen Failure",
    "TRT01A": "Screen Failure",
    "TRT01PN": null,
    "TRT01AN": null,
    "AGEGR1": "65-80",
    "AGEGR1N": 2,
    "RACEN": 1,
    "TRTSDT": null,
    "TRTEDT": null,
    "TRTDUR": null,
    "EOSSTT": "DISCONTINUED",
    "DCSREAS": "SCREEN FAILURE",
    "DISDT": "2013-12-08",
    "COMP16FL": "N",
    "COMP24FL": "N",
    "COMP8FL": "N",
    "EFFFL": "N",
    "ITTFL": "N",
    "SAFFL": "N",
    "EDUCLVL": null,
    "MMSETOT": null,
    "DISONSDT": null,
    "DURDIS": null,
    "DURDSGR1": ">=12",
    "WEIGHTBL": null,
    "HEIGHTBL": null,
    "BMIBL": null,
    "BMIBLGR1": null,
    "DTHDT": null,
    "SITEGR1": "701"
  },
  {
    "STUDYID": "CDISCPILOT01",
    "USUBJID": "01-701-1317",
    "SUBJID": "1317",
    "SITEID": "701",
    "AGE": 68,
    "AGEU": "YEARS",
    "SEX": "M",
    "RACE": "WHITE",
    "ETHNIC": "NOT HISPANIC OR LATINO",
    "ARM": "Xanomeline Low Dose",
    "ARMCD": "Xan_Lo",
    "ACTARM": "Xanomeline Low Dose",
    "ACTARMCD": "Xan_Lo",
    "RFSTDTC": "2014-05-22",
    "RFENDTC": "2014-11-20",
    "DTHDTC": "",
    "DTHFL": null,
    "COUNTRY": "USA",
    "TRT01P": "Xanomeline Low Dose",
    "TRT01A": "Xanomeline Low Dose",
    "TRT01PN": 1,
    "TRT01AN": 1,
    "AGEGR1": "65-80",
    "AGEGR1N": 2,
    "RACEN": 1,
    "TRTSDT": "2014-05-22",
    "TRTEDT": "2014-11-20",
    "TRTDUR": 183,
    "EOSSTT": "COMPLETED",
    "DCSREAS": null,
    "DISDT": "2014-11-20",
    "COMP16FL": "Y",
    "COMP24FL": "Y",
    "COMP8FL": "Y",
    "EFFFL": "Y",
    "ITTFL": "Y",
    "SAFFL": "Y",
    "EDUCLVL": 20,
    "MMSETOT": null,
    "DISONSDT": "2013-09-16",
    "DURDIS": 7.7536,
    "DURDSGR1": "<12",
    "WEIGHTBL": 66.68,
    "HEIGHTBL": null,
    "BMIBL": null,
    "BMIBLGR1": null,
    "DTHDT": null,
    "SITEGR1": "701"
  },
  {
    "STUDYID": "CDISCPILOT01",
    "USUBJID": "01-701-1324",
    "SUBJID": "1324",
    "SITEID": "701",
    "AGE": 79,
    "AGEU": "YEARS",
    "SEX": "M",
    "RACE": "WHITE",
    "ETHNIC": "NOT HISPANIC OR LATINO",
    "ARM": "Xanomeline Low Dose",
    "ARMCD": "Xan_Lo",
    "ACTARM": "Xanomeline Low Dose",
    "ACTARMCD": "Xan_Lo",
    "RFSTDTC": "2012-10-02",
    "RFENDTC": "2013-04-02",
    "DTHDTC": "",
    "DTHFL": null,
    "COUNTRY": "USA",
    "TRT01P": "Xanomeline Low Dose",
    "TRT01A": "Xanomeline Low Dose",
    "TRT01PN": 1,
    "TRT01AN": 1,
    "AGEGR1": "65-80",
    "AGEGR1N": 2,
    "RACEN": 1,
    "TRTSDT": "2012-10-02",
    "TRTEDT": "2013-04-02",
    "TRTDUR": 183,
    "EOSSTT": "COMPLETED",
    "DCSREAS": null,
    "DISDT": "2013-04-02",
    "COMP16FL": "Y",
    "COMP24FL": "Y",
    "COMP8FL": "Y",
    "EFFFL": "Y",
    "ITTFL": "Y",
    "SAFFL": "Y",
    "EDUCLVL": 18,
    "MMSETOT": null,
    "DISONSDT": "2009-10-11",
    "DURDIS": 35.1869,
    "DURDSGR1": ">=12",
    "WEIGHTBL": 77.11,
    "HEIGHTBL": null,
    "BMIBL": null,
    "BMIBLGR1": null,
    "DTHDT": null,
    "SITEGR1": "701"
  },
  {
    "STUDYID": "CDISCPILOT01",
    "USUBJID": "01-701-1341",
    "SUBJID": "1341",
    "SITEID": "701",
    "AGE": 51,
    "AGEU": "YEARS",
    "SEX": "M",
    "RACE": "WHITE",
    "ETHNIC": "NOT HISPANIC OR LATINO",
    "ARM": "Xanomeline Low Dose",
    "ARMCD": "Xan_Lo",
    "ACTARM": "Xanomeline Low Dose",
    "ACTARMCD": "Xan_Lo",
    "RFSTDTC": "2013-01-05",
    "RFENDTC": "2013-02-07",
    "DTHDTC": "",
    "DTHFL": null,
    "COUNTRY": "USA",
    "TRT01P": "Xanomeline Low Dose",
    "TRT01A": "Xanomeline Low Dose",
    "TRT01PN": 1,
    "TRT01AN": 1,
    "AGEGR1": "<65",
    "AGEGR1N": 1,
    "RACEN": 1,
    "TRTSDT": "2013-01-05",
    "TRTEDT": "2013-01-26",
    "TRTDUR": 22,
    "EOSSTT": "DISCONTINUED",
    "DCSREAS": "ADVERSE EVENT",
    "DISDT": "2013-02-07",
    "COMP16FL": "N",
    "COMP24FL": "N",
    "COMP8FL": "N",
    "EFFFL": "Y",
    "ITTFL": "Y",
    "SAFFL": "Y",
    "EDUCLVL": 24,
    "MMSETOT": null,
    "DISONSDT": "2006-06-05",
    "DURDIS": 78.5873,
    "DURDSGR1": ">=12",
    "WEIGHTBL": 70.76,
    "HEIGHTBL": null,
    "BMIBL": null,
    "BMIBLGR1": null,
    "DTHDT": null,
    "SITEGR1": "701"
  },
  {
    "STUDYID": "CDISCPILOT01",
    "USUBJID": "01-701-1345",
    "SUBJID": "1345",
    "SITEID": "701",
    "AGE": 63,
    "AGEU": "YEARS",
    "SEX": "F",
    "RACE": "WHITE",
    "ETHNIC": "NOT HISPANIC OR LATINO",
    "ARM": "Placebo",
    "ARMCD": "Pbo",
    "ACTARM": "Placebo",
    "ACTARMCD": "Pbo",
    "RFSTDTC": "2013-10-08",
    "RFENDTC": "2014-03-18",
    "DTHDTC": "",
    "DTHFL": null,
    "COUNTRY": "USA",
    "TRT01P": "Placebo",
    "TRT01A": "Placebo",
    "TRT01PN": 0,
    "TRT01AN": 0,
    "AGEGR1": "<65",
    "AGEGR1N": 1,
    "RACEN": 1,
    "TRTSDT": "2013-10-08",
    "TRTEDT": "2014-03-18",
    "TRTDUR": 162,
    "EOSSTT": "DISCONTINUED",
    "DCSREAS": "STUDY TERMINATED BY SPONSOR",
    "DISDT": "2014-03-18",
    "COMP16FL": "Y",
    "COMP24FL": "Y",
    "COMP8FL": "Y",
    "EFFFL": "Y",
    "ITTFL": "Y",
    "SAFFL": "Y",
    "EDUCLVL": 15,
    "MMSETOT": null,
    "DISONSDT": "2010-11-05",
    "DURDIS": 34.8583,
    "DURDSGR1": ">=12",
    "WEIGHTBL": 56.25,
    "HEIGHTBL": null,
    "BMIBL": null,
    "BMIBLGR1": null,
    "DTHDT": null,
    "SITEGR1": "701"
  },
  {
    "STUDYID": "CDISCPILOT01",
    "USUBJID": "01-701-1356",
    "SUBJID": "1356",
    "SITEID": "701",
    "AGE": 54,
    "AGEU": "YEARS",
    "SEX": "F",
    "RACE": "WHITE",
    "ETHNIC": "HISPANIC OR LATINO",
    "ARM": "Screen Failure",
    "ARMCD": "Scrnfail",
    "ACTARM": "Screen Failure",
    "ACTARMCD": "Scrnfail",
    "RFSTDTC": "",
    "RFENDTC": "",
    "DTHDTC": "",
    "DTHFL": null,
    "COUNTRY": "USA",
    "TRT01P": "Screen Failure",
    "TRT01A": "Screen Failure",
    "TRT01PN": null,
    "TRT01AN": null,
    "AGEGR1": "<65",
    "AGEGR1N": 1,
    "RACEN": 1,
    "TRTSDT": null,
    "TRTEDT": null,
    "TRTDUR": null,
    "EOSSTT": "DISCONTINUED",
    "DCSREAS": "SCREEN FAILURE",
    "DISDT": "2014-04-01",
    "COMP16FL": "N",
    "COMP24FL": "N",
    "COMP8FL": "N",
    "EFFFL": "N",
    "ITTFL": "N",
    "SAFFL": "N",
    "EDUCLVL": null,
    "MMSETOT": null,
    "DISONSDT": null,
    "DURDIS": null,
    "DURDSGR1": ">=12",
    "WEIGHTBL": null,
    "HEIGHTBL": null,
    "BMIBL": null,
    "BMIBLGR1": null,
    "DTHDT": null,
    "SITEGR1": "701"
  },
  {
    "STUDYID": "CDISCPILOT01",
    "USUBJID": "01-701-1360",
    "SUBJID": "1360",
    "SITEID": "701",
    "AGE": 67,
    "AGEU": "YEARS",
    "SEX": "M",
    "RACE": "WHITE",
    "ETHNIC": "NOT HISPANIC OR LATINO",
    "ARM": "Xanomeline High Dose",
    "ARMCD": "Xan_Hi",
    "ACTARM": "Xanomeline Low Dose",
    "ACTARMCD": "Xan_Lo",
    "RFSTDTC": "2013-07-31",
    "RFENDTC": "2013-08-14",
    "DTHDTC": "",
    "DTHFL": null,
    "COUNTRY": "USA",
    "TRT01P": "Xanomeline High Dose",
    "TRT01A": "Xanomeline Low Dose",
    "TRT01PN": 2,
    "TRT01AN": 1,
    "AGEGR1": "65-80",
    "AGEGR1N": 2,
    "RACEN": 1,
    "TRTSDT": "2013-07-31",
    "TRTEDT": "2013-08-05",
    "TRTDUR": 6,
    "EOSSTT": "DISCONTINUED",
    "DCSREAS": "PHYSICIAN DECISION",
    "DISDT": "2013-08-14",
    "COMP16FL": "N",
    "COMP24FL": "N",
    "COMP8FL": "N",
    "EFFFL": "Y",
    "ITTFL": "Y",
    "SAFFL": "Y",
    "EDUCLVL": 10,
    "MMSETOT": null,
    "DISONSDT": "2008-12-02",
    "DURDIS": 55.6879,
    "DURDSGR1": ">=12",
    "WEIGHTBL": 80.29,
    "HEIGHTBL": null,
    "BMIBL": null,
    "BMIBLGR1": null,
    "DTHDT": null,
    "SITEGR1": "701"
  },
  {
    "STUDYID": "CDISCPILOT01",
    "USUBJID": "01-701-1363",
    "SUBJID": "1363",
    "SITEID": "701",
    "AGE": 81,
    "AGEU": "YEARS",
    "SEX": "F",
    "RACE": "BLACK OR AFRICAN AMERICAN",
    "ETHNIC": "NOT HISPANIC OR LATINO",
    "ARM": "Placebo",
    "ARMCD": "Pbo",
    "ACTARM": "Placebo",
    "ACTARMCD": "Pbo",
    "RFSTDTC": "2013-05-30",
    "RFENDTC": "2013-11-27",
    "DTHDTC": "",
    "DTHFL": null,
    "COUNTRY": "USA",
    "TRT01P": "Placebo",
    "TRT01A": "Placebo",
    "TRT01PN": 0,
    "TRT01AN": 0,
    "AGEGR1": ">80",
    "AGEGR1N": 3,
    "RACEN": 2,
    "TRTSDT": "2013-05-30",
    "TRTEDT": "2013-11-27",
    "TRTDUR": 182,
    "EOSSTT": "COMPLETED",
    "DCSREAS": null,
    "DISDT": "2013-11-27",
    "COMP16FL": "Y",
    "COMP24FL": "Y",
    "COMP8FL": "Y",
    "EFFFL": "Y",
    "ITTFL": "Y",
    "SAFFL": "Y",
    "EDUCLVL": 13,
    "MMSETOT": null,
    "DISONSDT": "2005-10-20",
    "DURDIS": 90.9733,
    "DURDSGR1": ">=12",
    "WEIGHTBL": 64.86,
    "HEIGHTBL": null,
    "BMIBL": null,
    "BMIBLGR1": null,
    "DTHDT": null,
    "SITEGR1": "701"
  },
  {
    "STUDYID": "CDISCPILOT01",
    "USUBJID": "01-701-1369",
    "SUBJID": "1369",
    "SITEID": "701",
    "AGE": 74,
    "AGEU": "YEARS",
    "SEX": "M",
    "RACE": "WHITE",
    "ETHNIC": "NOT HISPANIC OR LATINO",
    "ARM": "Screen Failure",
    "ARMCD": "Scrnfail",
    "ACTARM": "Screen Failure",
    "ACTARMCD": "Scrnfail",
    "RFSTDTC": "",
    "RFENDTC": "",
    "DTHDTC": "",
    "DTHFL": null,
    "COUNTRY": "USA",
    "TRT01P": "Screen Failure",
    "TRT01A": "Screen Failure",
    "TRT01PN": null,
    "TRT01AN": null,
    "AGEGR1": "65-80",
    "AGEGR1N": 2,
    "RACEN": 1,
    "TRTSDT": null,
    "TRTEDT": null,
    "TRTDUR": null,
    "EOSSTT": "DISCONTINUED",
    "DCSREAS": "SCREEN FAILURE",
    "DISDT": "2013-09-18",
    "COMP16FL": "N",
    "COMP24FL": "N",
    "COMP8FL": "N",
    "EFFFL": "N",
    "ITTFL": "N",
    "SAFFL": "N",
    "EDUCLVL": null,
    "MMSETOT": null,
    "DISONSDT": null,
    "DURDIS": null,
    "DURDSGR1": ">=12",
    "WEIGHTBL": null,
    "HEIGHTBL": null,
    "BMIBL": null,
    "BMIBLGR1": null,
    "DTHDT": null,
    "SITEGR1": "701"
  },
  {
    "STUDYID": "CDISCPILOT01",
    "USUBJID": "01-701-1383",
    "SUBJID": "1383",
    "SITEID": "701",
    "AGE": 72,
    "AGEU": "YEARS",
    "SEX": "F",
    "RACE": "WHITE",
    "ETHNIC": "NOT HISPANIC OR LATINO",
    "ARM": "Xanomeline High Dose",
    "ARMCD": "Xan_Hi",
    "ACTARM": "Xanomeline High Dose",
    "ACTARMCD": "Xan_Hi",
    "RFSTDTC": "2013-02-04",
    "RFENDTC": "2013-08-06",
    "DTHDTC": "",
    "DTHFL": null,
    "COUNTRY": "USA",
    "TRT01P": "Xanomeline High Dose",
    "TRT01A": "Xanomeline High Dose",
    "TRT01PN": 2,
    "TRT01AN": 2,
    "AGEGR1": "65-80",
    "AGEGR1N": 2,
    "RACEN": 1,
    "TRTSDT": "2013-02-04",
    "TRTEDT": "2013-08-06",
    "TRTDUR": 184,
    "EOSSTT": "COMPLETED",
    "DCSREAS": null,
    "DISDT": "2013-08-06",
    "COMP16FL": "Y",
    "COMP24FL": "Y",
    "COMP8FL": "Y",
    "EFFFL": "Y",
    "ITTFL": "Y",
    "SAFFL": "Y",
    "EDUCLVL": 12,
    "MMSETOT": null,
    "DISONSDT": "2006-08-20",
    "DURDIS": 77.1088,
    "DURDSGR1": ">=12",
    "WEIGHTBL": 84.82,
    "HEIGHTBL": null,
    "BMIBL": null,
    "BMIBLGR1": null,
    "DTHDT": null,
    "SITEGR1": "701"
  },
  {
    "STUDYID": "CDISCPILOT01",
    "USUBJID": "01-701-1386",
    "SUBJID": "1386",
    "SITEID": "701",
    "AGE": 71,
    "AGEU": "YEARS",
    "SEX": "M",
    "RACE": "WHITE",
    "ETHNIC": "NOT HISPANIC OR LATINO",
    "ARM": "Screen Failure",
    "ARMCD": "Scrnfail",
    "ACTARM": "Screen Failure",
    "ACTARMCD": "Scrnfail",
    "RFSTDTC": "",
    "RFENDTC": "",
    "DTHDTC": "",
    "DTHFL": null,
    "COUNTRY": "USA",
    "TRT01P": "Screen Failure",
    "TRT01A": "Screen Failure",
    "TRT01PN": null,
    "TRT01AN": null,
    "AGEGR1": "65-80",
    "AGEGR1N": 2,
    "RACEN": 1,
    "TRTSDT": null,
    "TRTEDT": null,
    "TRTDUR": null,
    "EOSSTT": "DISCONTINUED",
    "DCSREAS": "SCREEN FAILURE",
    "DISDT": "2013-12-28",
    "COMP16FL": "N",
    "COMP24FL": "N",
    "COMP8FL": "N",
    "EFFFL": "N",
    "ITTFL": "N",
    "SAFFL": "N",
    "EDUCLVL": null,
    "MMSETOT": null,
    "DISONSDT": null,
    "DURDIS": null,
    "DURDSGR1": ">=12",
    "WEIGHTBL": null,
    "HEIGHTBL": null,
    "BMIBL": null,
    "BMIBLGR1": null,
    "DTHDT": null,
    "SITEGR1": "701"
  },
  {
    "STUDYID": "CDISCPILOT01",
    "USUBJID": "01-701-1387",
    "SUBJID": "1387",
    "SITEID": "701",
    "AGE": 87,
    "AGEU": "YEARS",
    "SEX": "F",
    "RACE": "WHITE",
    "ETHNIC": "NOT HISPANIC OR LATINO",
    "ARM": "Placebo",
    "ARMCD": "Pbo",
    "ACTARM": "Placebo",
    "ACTARMCD": "Pbo",
    "RFSTDTC": "2014-03-12",
    "RFENDTC": "2014-03-25",
    "DTHDTC": "",
    "DTHFL": null,
    "COUNTRY": "USA",
    "TRT01P": "Placebo",
    "TRT01A": "Placebo",
    "TRT01PN": 0,
    "TRT01AN": 0,
    "AGEGR1": ">80",
    "AGEGR1N": 3,
    "RACEN": 1,
    "TRTSDT": "2014-03-12",
    "TRTEDT": "2014-03-25",
    "TRTDUR": 14,
    "EOSSTT": "DISCONTINUED",
    "DCSREAS": "PROTOCOL VIOLATION",
    "DISDT": "2014-03-25",
    "COMP16FL": "N",
    "COMP24FL": "N",
    "COMP8FL": "N",
    "EFFFL": "Y",
    "ITTFL": "Y",
    "SAFFL": "Y",
    "EDUCLVL": 12,
    "MMSETOT": null,
    "DISONSDT": "2003-08-17",
    "DURDIS": 126.2587,
    "DURDSGR1": ">=12",
    "WEIGHTBL": 59.42,
    "HEIGHTBL": null,
    "BMIBL": null,
    "BMIBLGR1": null,
    "DTHDT": null,
    "SITEGR1": "701"
  },
  {
    "STUDYID": "CDISCPILOT01",
    "USUBJID": "01-701-1392",
    "SUBJID": "1392",
    "SITEID": "701",
    "AGE": 78,
    "AGEU": "YEARS",
    "SEX": "M",
    "RACE": "WHITE",
    "ETHNIC": "NOT HISPANIC OR LATINO",
    "ARM": "Placebo",
    "ARMCD": "Pbo",
    "ACTARM": "Placebo",
    "ACTARMCD": "Pbo",
    "RFSTDTC": "2012-10-28",
    "RFENDTC": "2013-04-28",
    "DTHDTC": "",
    "DTHFL": null,
    "COUNTRY": "USA",
    "TRT01P": "Placebo",
    "TRT01A": "Placebo",
    "TRT01PN": 0,
    "TRT01AN": 0,
    "AGEGR1": "65-80",
    "AGEGR1N": 2,
    "RACEN": 1,
    "TRTSDT": "2012-10-28",
    "TRTEDT": "2013-04-28",
    "TRTDUR": 183,
    "EOSSTT": "COMPLETED",
    "DCSREAS": null,
    "DISDT": "2013-04-28",
    "COMP16FL": "Y",
    "COMP24FL": "Y",
    "COMP8FL": "Y",
    "EFFFL": "Y",
    "ITTFL": "Y",
    "SAFFL": "Y",
    "EDUCLVL": 16,
    "MMSETOT": null,
    "DISONSDT": "2010-04-25",
    "DURDIS": 29.7659,
    "DURDSGR1": ">=12",
    "WEIGHTBL": 81.19,
    "HEIGHTBL": null,
    "BMIBL": null,
    "BMIBLGR1": null,
    "DTHDT": null,
    "SITEGR1": "701"
  },
  {
    "STUDYID": "CDISCPILOT01",
    "USUBJID": "01-701-1411",
    "SUBJID": "1411",
    "SITEID": "701",
    "AGE": 76,
    "AGEU": "YEARS",
    "SEX": "M",
    "RACE": "BLACK OR AFRICAN AMERICAN",
    "ETHNIC": "NOT HISPANIC OR LATINO",
    "ARM": "Screen Failure",
    "ARMCD": "Scrnfail",
    "ACTARM": "Screen Failure",
    "ACTARMCD": "Scrnfail",
    "RFSTDTC": "",
    "RFENDTC": "",
    "DTHDTC": "",
    "DTHFL": null,
    "COUNTRY": "USA",
    "TRT01P": "Screen Failure",
    "TRT01A": "Screen Failure",
    "TRT01PN": null,
    "TRT01AN": null,
    "AGEGR1": "65-80",
    "AGEGR1N": 2,
    "RACEN": 2,
    "TRTSDT": null,
    "TRTEDT": null,
    "TRTDUR": null,
    "EOSSTT": "DISCONTINUED",
    "DCSREAS": "SCREEN FAILURE",
    "DISDT": "2012-11-14",
    "COMP16FL": "N",
    "COMP24FL": "N",
    "COMP8FL": "N",
    "EFFFL": "N",
    "ITTFL": "N",
    "SAFFL": "N",
    "EDUCLVL": null,
    "MMSETOT": null,
    "DISONSDT": null,
    "DURDIS": null,
    "DURDSGR1": ">=12",
    "WEIGHTBL": null,
    "HEIGHTBL": null,
    "BMIBL": null,
    "BMIBLGR1": null,
    "DTHDT": null,
    "SITEGR1": "701"
  },
  {
    "STUDYID": "CDISCPILOT01",
    "USUBJID": "01-701-1415",
    "SUBJID": "1415",
    "SITEID": "701",
    "AGE": 85,
    "AGEU": "YEARS",
    "SEX": "M",
    "RACE": "WHITE",
    "ETHNIC": "NOT HISPANIC OR LATINO",
    "ARM": "Placebo",
    "ARMCD": "Pbo",
    "ACTARM": "Placebo",
    "ACTARMCD": "Pbo",
    "RFSTDTC": "2013-09-23",
    "RFENDTC": "2014-03-24",
    "DTHDTC": "",
    "DTHFL": null,
    "COUNTRY": "USA",
    "TRT01P": "Placebo",
    "TRT01A": "Placebo",
    "TRT01PN": 0,
    "TRT01AN": 0,
    "AGEGR1": ">80",
    "AGEGR1N": 3,
    "RACEN": 1,
    "TRTSDT": "2013-09-23",
    "TRTEDT": "2014-03-24",
    "TRTDUR": 183,
    "EOSSTT": "COMPLETED",
    "DCSREAS": null,
    "DISDT": "2014-03-24",
    "COMP16FL": "Y",
    "COMP24FL": "Y",
    "COMP8FL": "Y",
    "EFFFL": "Y",
    "ITTFL": "Y",
    "SAFFL": "Y",
    "EDUCLVL": 10,
    "MMSETOT": null,
    "DISONSDT": "1998-06-13",
    "DURDIS": 183.0965,
    "DURDSGR1": ">=12",
    "WEIGHTBL": 76.66,
    "HEIGHTBL": null,
    "BMIBL": null,
    "BMIBLGR1": null,
    "DTHDT": null,
    "SITEGR1": "701"
  },
  {
    "STUDYID": "CDISCPILOT01",
    "USUBJID": "01-701-1429",
    "SUBJID": "1429",
    "SITEID": "701",
    "AGE": 84,
    "AGEU": "YEARS",
    "SEX": "F",
    "RACE": "WHITE",
    "ETHNIC": "NOT HISPANIC OR LATINO",
    "ARM": "Xanomeline Low Dose",
    "ARMCD": "Xan_Lo",
    "ACTARM": "Xanomeline Low Dose",
    "ACTARMCD": "Xan_Lo",
    "RFSTDTC": "2013-03-19",
    "RFENDTC": "2013-04-30",
    "DTHDTC": "",
    "DTHFL": null,
    "COUNTRY": "USA",
    "TRT01P": "Xanomeline Low Dose",
    "TRT01A": "Xanomeline Low Dose",
    "TRT01PN": 1,
    "TRT01AN": 1,
    "AGEGR1": ">80",
    "AGEGR1N": 3,
    "RACEN": 1,
    "TRTSDT": "2013-03-19",
    "TRTEDT": "2013-04-30",
    "TRTDUR": 43,
    "EOSSTT": "DISCONTINUED",
    "DCSREAS": "WITHDRAWAL BY SUBJECT",
    "DISDT": "2013-04-30",
    "COMP16FL": "N",
    "COMP24FL": "N",
    "COMP8FL": "N",
    "EFFFL": "Y",
    "ITTFL": "Y",
    "SAFFL": "Y",
    "EDUCLVL": 12,
    "MMSETOT": null,
    "DISONSDT": "2008-06-17",
    "DURDIS": 56.3121,
    "DURDSGR1": ">=12",
    "WEIGHTBL": 56.7,
    "HEIGHTBL": null,
    "BMIBL": null,
    "BMIBLGR1": null,
    "DTHDT": null,
    "SITEGR1": "701"
  },
  {
    "STUDYID": "CDISCPILOT01",
    "USUBJID": "01-701-1440",
    "SUBJID": "1440",
    "SITEID": "701",
    "AGE": 70,
    "AGEU": "YEARS",
    "SEX": "M",
    "RACE": "WHITE",
    "ETHNIC": "NOT HISPANIC OR LATINO",
    "ARM": "Placebo",
    "ARMCD": "Pbo",
    "ACTARM": "Placebo",
    "ACTARMCD": "Pbo",
    "RFSTDTC": "2013-08-08",
    "RFENDTC": "2014-02-05",
    "DTHDTC": "",
    "DTHFL": null,
    "COUNTRY": "USA",
    "TRT01P": "Placebo",
    "TRT01A": "Placebo",
    "TRT01PN": 0,
    "TRT01AN": 0,
    "AGEGR1": "65-80",
    "AGEGR1N": 2,
    "RACEN": 1,
    "TRTSDT": "2013-08-08",
    "TRTEDT": "2014-02-05",
    "TRTDUR": 182,
    "EOSSTT": "COMPLETED",
    "DCSREAS": null,
    "DISDT": "2014-02-05",
    "COMP16FL": "Y",
    "COMP24FL": "Y",
    "COMP8FL": "Y",
    "EFFFL": "Y",
    "ITTFL": "Y",
    "SAFFL": "Y",
    "EDUCLVL": 18,
    "MMSETOT": null,
    "DISONSDT": "2011-04-07",
    "DURDIS": 27.5647,
    "DURDSGR1": ">=12",
    "WEIGHTBL": 49.44,
    "HEIGHTBL": null,
    "BMIBL": null,
    "BMIBLGR1": null,
    "DTHDT": null,
    "SITEGR1": "701"
  },
  {
    "STUDYID": "CDISCPILOT01",
    "USUBJID": "01-701-1442",
    "SUBJID": "1442",
    "SITEID": "701",
    "AGE": 57,
    "AGEU": "YEARS",
    "SEX": "F",
    "RACE": "BLACK OR AFRICAN AMERICAN",
    "ETHNIC": "NOT HISPANIC OR LATINO",
    "ARM": "Xanomeline Low Dose",
    "ARMCD": "Xan_Lo",
    "ACTARM": "Xanomeline Low Dose",
    "ACTARMCD": "Xan_Lo",
    "RFSTDTC": "2013-10-26",
    "RFENDTC": "2014-04-26",
    "DTHDTC": "",
    "DTHFL": null,
    "COUNTRY": "USA",
    "TRT01P": "Xanomeline Low Dose",
    "TRT01A": "Xanomeline Low Dose",
    "TRT01PN": 1,
    "TRT01AN": 1,
    "AGEGR1": "<65",
    "AGEGR1N": 1,
    "RACEN": 2,
    "TRTSDT": "2013-10-26",
    "TRTEDT": "2014-04-26",
    "TRTDUR": 183,
    "EOSSTT": "COMPLETED",
    "DCSREAS": null,
    "DISDT": "2014-04-26",
    "COMP16FL": "Y",
    "COMP24FL": "Y",
    "COMP8FL": "Y",
    "EFFFL": "Y",
    "ITTFL": "Y",
    "SAFFL": "Y",
    "EDUCLVL": 12,
    "MMSETOT": null,
    "DISONSDT": "2006-02-20",
    "DURDIS": 91.8604,
    "DURDSGR1": ">=12",
    "WEIGHTBL": 106.14,
    "HEIGHTBL": null,
    "BMIBL": null,
    "BMIBLGR1": null,
    "DTHDT": null,
    "SITEGR1": "701"
  },
  {
    "STUDYID": "CDISCPILOT01",
    "USUBJID": "01-701-1444",
    "SUBJID": "1444",
    "SITEID": "701",
    "AGE": 63,
    "AGEU": "YEARS",
    "SEX": "M",
    "RACE": "WHITE",
    "ETHNIC": "HISPANIC OR LATINO",
    "ARM": "Xanomeline High Dose",
    "ARMCD": "Xan_Hi",
    "ACTARM": "Xanomeline High Dose",
    "ACTARMCD": "Xan_Hi",
    "RFSTDTC": "2013-01-05",
    "RFENDTC": "2013-02-13",
    "DTHDTC": "",
    "DTHFL": null,
    "COUNTRY": "USA",
    "TRT01P": "Xanomeline High Dose",
    "TRT01A": "Xanomeline High Dose",
    "TRT01PN": 2,
    "TRT01AN": 2,
    "AGEGR1": "<65",
    "AGEGR1N": 1,
    "RACEN": 1,
    "TRTSDT": "2013-01-05",
    "TRTEDT": "2013-02-12",
    "TRTDUR": 39,
    "EOSSTT": "DISCONTINUED",
    "DCSREAS": "ADVERSE EVENT",
    "DISDT": "2013-02-13",
    "COMP16FL": "N",
    "COMP24FL": "N",
    "COMP8FL": "N",
    "EFFFL": "Y",
    "ITTFL": "Y",
    "SAFFL": "Y",
    "EDUCLVL": 14,
    "MMSETOT": null,
    "DISONSDT": "2008-05-21",
    "DURDIS": 55.3593,
    "DURDSGR1": ">=12",
    "WEIGHTBL": 101.61,
    "HEIGHTBL": null,
    "BMIBL": null,
    "BMIBLGR1": null,
    "DTHDT": null,
    "SITEGR1": "701"
  },
  {
    "STUDYID": "CDISCPILOT01",
    "USUBJID": "01-702-1082",
    "SUBJID": "1082",
    "SITEID": "702",
    "AGE": 84,
    "AGEU": "YEARS",
    "SEX": "F",
    "RACE": "WHITE",
    "ETHNIC": "NOT HISPANIC OR LATINO",
    "ARM": "Xanomeline Low Dose",
    "ARMCD": "Xan_Lo",
    "ACTARM": "Xanomeline Low Dose",
    "ACTARMCD": "Xan_Lo",
    "RFSTDTC": "2013-07-26",
    "RFENDTC": "2013-11-17",
    "DTHDTC": "",
    "DTHFL": null,
    "COUNTRY": "USA",
    "TRT01P": "Xanomeline Low Dose",
    "TRT01A": "Xanomeline Low Dose",
    "TRT01PN": 1,
    "TRT01AN": 1,
    "AGEGR1": ">80",
    "AGEGR1N": 3,
    "RACEN": 1,
    "TRTSDT": "2013-07-26",
    "TRTEDT": "2013-10-13",
    "TRTDUR": 80,
    "EOSSTT": "DISCONTINUED",
    "DCSREAS": "WITHDRAWAL BY SUBJECT",
    "DISDT": "2013-11-17",
    "COMP16FL": "N",
    "COMP24FL": "N",
    "COMP8FL": "Y",
    "EFFFL": "Y",
    "ITTFL": "Y",
    "SAFFL": "Y",
    "EDUCLVL": 18,
    "MMSETOT": null,
    "DISONSDT": "2007-05-17",
    "DURDIS": 73.5606,
    "DURDSGR1": ">=12",
    "WEIGHTBL": null,
    "HEIGHTBL": null,
    "BMIBL": null,
    "BMIBLGR1": null,
    "DTHDT": null,
    "SITEGR1": "900"
  },
  {
    "STUDYID": "CDISCPILOT01",
    "USUBJID": "01-703-1042",
    "SUBJID": "1042",
    "SITEID": "703",
    "AGE": 64,
    "AGEU": "YEARS",
    "SEX": "M",
    "RACE": "WHITE",
    "ETHNIC": "NOT HISPANIC OR LATINO",
    "ARM": "Placebo",
    "ARMCD": "Pbo",
    "ACTARM": "Placebo",
    "ACTARMCD": "Pbo",
    "RFSTDTC": "2013-03-02",
    "RFENDTC": "2013-08-31",
    "DTHDTC": "",
    "DTHFL": null,
    "COUNTRY": "USA",
    "TRT01P": "Placebo",
    "TRT01A": "Placebo",
    "TRT01PN": 0,
    "TRT01AN": 0,
    "AGEGR1": "<65",
    "AGEGR1N": 1,
    "RACEN": 1,
    "TRTSDT": "2013-03-02",
    "TRTEDT": "2013-08-31",
    "TRTDUR": 183,
    "EOSSTT": "COMPLETED",
    "DCSREAS": null,
    "DISDT": "2013-08-31",
    "COMP16FL": "Y",
    "COMP24FL": "Y",
    "COMP8FL": "Y",
    "EFFFL": "Y",
    "ITTFL": "Y",
    "SAFFL": "Y",
    "EDUCLVL": 12,
    "MMSETOT": null,
    "DISONSDT": "2008-07-23",
    "DURDIS": 55.0637,
    "DURDSGR1": ">=12",
    "WEIGHTBL": 74.39,
    "HEIGHTBL": null,
    "BMIBL": null,
    "BMIBLGR1": null,
    "DTHDT": null,
    "SITEGR1": "703"
  },
  {
    "STUDYID": "CDISCPILOT01",
    "USUBJID": "01-703-1076",
    "SUBJID": "1076",
    "SITEID": "703",
    "AGE": 69,
    "AGEU": "YEARS",
    "SEX": "M",
    "RACE": "WHITE",
    "ETHNIC": "NOT HISPANIC OR LATINO",
    "ARM": "Xanomeline High Dose",
    "ARMCD": "Xan_Hi",
    "ACTARM": "Xanomeline High Dose",
    "ACTARMCD": "Xan_Hi",
    "RFSTDTC": "2013-10-25",
    "RFENDTC": "2013-12-24",
    "DTHDTC": "",
    "DTHFL": null,
    "COUNTRY": "USA",
    "TRT01P": "Xanomeline High Dose",
    "TRT01A": "Xanomeline High Dose",
    "TRT01PN": 2,
    "TRT01AN": 2,
    "AGEGR1": "65-80",
    "AGEGR1N": 2,
    "RACEN": 1,
    "TRTSDT": "2013-10-25",
    "TRTEDT": "2013-12-24",
    "TRTDUR": 61,
    "EOSSTT": "DISCONTINUED",
    "DCSREAS": "ADVERSE EVENT",
    "DISDT": "2013-12-24",
    "COMP16FL": "N",
    "COMP24FL": "N",
    "COMP8FL": "Y",
    "EFFFL": "Y",
    "ITTFL": "Y",
    "SAFFL": "Y",
    "EDUCLVL": 10,
    "MMSETOT": null,
    "DISONSDT": "2012-08-27",
    "DURDIS": 13.6674,
    "DURDSGR1": ">=12",
    "WEIGHTBL": 87.09,
    "HEIGHTBL": null,
    "BMIBL": null,
    "BMIBLGR1": null,
    "DTHDT": null,
    "SITEGR1": "703"
  },
  {
    "STUDYID": "CDISCPILOT01",
    "USUBJID": "01-703-1086",
    "SUBJID": "1086",
    "SITEID": "703",
    "AGE": 71,
    "AGEU": "YEARS",
    "SEX": "M",
    "RACE": "WHITE",
    "ETHNIC": "NOT HISPANIC OR LATINO",
    "ARM": "Xanomeline Low Dose",
    "ARMCD": "Xan_Lo",
    "ACTARM": "Xanomeline Low Dose",
    "ACTARMCD": "Xan_Lo",
    "RFSTDTC": "2012-09-02",
    "RFENDTC": "2012-12-24",
    "DTHDTC": "",
    "DTHFL": null,
    "COUNTRY": "USA",
    "TRT01P": "Xanomeline Low Dose",
    "TRT01A": "Xanomeline Low Dose",
    "TRT01PN": 1,
    "TRT01AN": 1,
    "AGEGR1": "65-80",
    "AGEGR1N": 2,
    "RACEN": 1,
    "TRTSDT": "2012-09-02",
    "TRTEDT": "2012-12-04",
    "TRTDUR": 94,
    "EOSSTT": "DISCONTINUED",
    "DCSREAS": "ADVERSE EVENT",
    "DISDT": "2012-12-24",
    "COMP16FL": "Y",
    "COMP24FL": "N",
    "COMP8FL": "Y",
    "EFFFL": "Y",
    "ITTFL": "Y",
    "SAFFL": "Y",
    "EDUCLVL": 17,
    "MMSETOT": null,
    "DISONSDT": "2011-04-27",
    "DURDIS": 15.8686,
    "DURDSGR1": ">=12",
    "WEIGHTBL": 95.71,
    "HEIGHTBL": null,
    "BMIBL": null,
    "BMIBLGR1": null,
    "DTHDT": null,
    "SITEGR1": "703"
  },
  {
    "STUDYID": "CDISCPILOT01",
    "USUBJID": "01-703-1096",
    "SUBJID": "1096",
    "SITEID": "703",
    "AGE": 81,
    "AGEU": "YEARS",
    "SEX": "F",
    "RACE": "WHITE",
    "ETHNIC": "NOT HISPANIC OR LATINO",
    "ARM": "Placebo",
    "ARMCD": "Pbo",
    "ACTARM": "Placebo",
    "ACTARMCD": "Pbo",
    "RFSTDTC": "2013-01-25",
    "RFENDTC": "2013-03-29",
    "DTHDTC": "",
    "DTHFL": null,
    "COUNTRY": "USA",
    "TRT01P": "Placebo",
    "TRT01A": "Placebo",
    "TRT01PN": 0,
    "TRT01AN": 0,
    "AGEGR1": ">80",
    "AGEGR1N": 3,
    "RACEN": 1,
    "TRTSDT": "2013-01-25",
    "TRTEDT": "2013-03-16",
    "TRTDUR": 51,
    "EOSSTT": "DISCONTINUED",
    "DCSREAS": "LOST TO FOLLOW-UP",
    "DISDT": "2013-03-29",
    "COMP16FL": "N",
    "COMP24FL": "N",
    "COMP8FL": "N",
    "EFFFL": "N",
    "ITTFL": "Y",
    "SAFFL": "Y",
    "EDUCLVL": 6,
    "MMSETOT": null,
    "DISONSDT": "2006-12-20",
    "DURDIS": 71.9836,
    "DURDSGR1": ">=12",
    "WEIGHTBL": 81.19,
    "HEIGHTBL": null,
    "BMIBL": null,
    "BMIBLGR1": null,
    "DTHDT": null,
    "SITEGR1": "703"
  },
  {
    "STUDYID": "CDISCPILOT01",
    "USUBJID": "01-703-1100",
    "SUBJID": "1100",
    "SITEID": "703",
    "AGE": 84,
    "AGEU": "YEARS",
    "SEX": "F",
    "RACE": "WHITE",
    "ETHNIC": "NOT HISPANIC OR LATINO",
    "ARM": "Placebo",
    "ARMCD": "Pbo",
    "ACTARM": "Placebo",
    "ACTARMCD": "Pbo",
    "RFSTDTC": "2013-03-13",
    "RFENDTC": "2013-09-14",
    "DTHDTC": "",
    "DTHFL": null,
    "COUNTRY": "USA",
    "TRT01P": "Placebo",
    "TRT01A": "Placebo",
    "TRT01PN": 0,
    "TRT01AN": 0,
    "AGEGR1": ">80",
    "AGEGR1N": 3,
    "RACEN": 1,
    "TRTSDT": "2013-03-13",
    "TRTEDT": "2013-09-14",
    "TRTDUR": 186,
    "EOSSTT": "COMPLETED",
    "DCSREAS": null,
    "DISDT": "2013-09-14",
    "COMP16FL": "Y",
    "COMP24FL": "Y",
    "COMP8FL": "Y",
    "EFFFL": "Y",
    "ITTFL": "Y",
    "SAFFL": "Y",
    "EDUCLVL": 8,
    "MMSETOT": null,
    "DISONSDT": "2010-12-02",
    "DURDIS": 26.9076,
    "DURDSGR1": ">=12",
    "WEIGHTBL": 61.24,
    "HEIGHTBL": null,
    "BMIBL": null,
    "BMIBLGR1": null,
    "DTHDT": null,
    "SITEGR1": "703"
  },
  {
    "STUDYID": "CDISCPILOT01",
    "USUBJID": "01-703-1119",
    "SUBJID": "1119",
    "SITEID": "703",
    "AGE": 81,
    "AGEU": "YEARS",
    "SEX": "F",
    "RACE": "WHITE",
    "ETHNIC": "NOT HISPANIC OR LATINO",
    "ARM": "Xanomeline Low Dose",
    "ARMCD": "Xan_Lo",
    "ACTARM": "Xanomeline Low Dose",
    "ACTARMCD": "Xan_Lo",
    "RFSTDTC": "2013-02-20",
    "RFENDTC": "2013-06-13",
    "DTHDTC": "",
    "DTHFL": null,
    "COUNTRY": "USA",
    "TRT01P": "Xanomeline Low Dose",
    "TRT01A": "Xanomeline Low Dose",
    "TRT01PN": 1,
    "TRT01AN": 1,
    "AGEGR1": ">80",
    "AGEGR1N": 3,
    "RACEN": 1,
    "TRTSDT": "2013-02-20",
    "TRTEDT": "2013-06-13",
    "TRTDUR": 114,
    "EOSSTT": "DISCONTINUED",
    "DCSREAS": "ADVERSE EVENT",
    "DISDT": "2013-06-13",
    "COMP16FL": "Y",
    "COMP24FL": "N",
    "COMP8FL": "Y",
    "EFFFL": "Y",
    "ITTFL": "Y",
    "SAFFL": "Y",
    "EDUCLVL": 16,
    "MMSETOT": null,
    "DISONSDT": "2005-02-01",
    "DURDIS": 96.0329,
    "DURDSGR1": ">=12",
    "WEIGHTBL": 47.17,
    "HEIGHTBL": null,
    "BMIBL": null,
    "BMIBLGR1": null,
    "DTHDT": null,
    "SITEGR1": "703"
  },
  {
    "STUDYID": "CDISCPILOT01",
    "USUBJID": "01-703-1175",
    "SUBJID": "1175",
    "SITEID": "703",
    "AGE": 75,
    "AGEU": "YEARS",
    "SEX": "M",
    "RACE": "WHITE",
    "ETHNIC": "NOT HISPANIC OR LATINO",
    "ARM": "Placebo",
    "ARMCD": "Pbo",
    "ACTARM": "Placebo",
    "ACTARMCD": "Pbo",
    "RFSTDTC": "2013-12-20",
    "RFENDTC": "2013-12-31",
    "DTHDTC": "",
    "DTHFL": null,
    "COUNTRY": "USA",
    "TRT01P": "Placebo",
    "TRT01A": "Placebo",
    "TRT01PN": 0,
    "TRT01AN": 0,
    "AGEGR1": "65-80",
    "AGEGR1N": 2,
    "RACEN": 1,
    "TRTSDT": "2013-12-20",
    "TRTEDT": "2013-12-26",
    "TRTDUR": 7,
    "EOSSTT": "DISCONTINUED",
    "DCSREAS": "PROTOCOL VIOLATION",
    "DISDT": "2013-12-31",
    "COMP16FL": "N",
    "COMP24FL": "N",
    "COMP8FL": "N",
    "EFFFL": "Y",
    "ITTFL": "Y",
    "SAFFL": "Y",
    "EDUCLVL": 16,
    "MMSETOT": null,
    "DISONSDT": "2010-09-19",
    "DURDIS": 38.8008,
    "DURDSGR1": ">=12",
    "WEIGHTBL": 77.11,
    "HEIGHTBL": null,
    "BMIBL": null,
    "BMIBLGR1": null,
    "DTHDT": null,
    "SITEGR1": "703"
  },
  {
    "STUDYID": "CDISCPILOT01",
    "USUBJID": "01-703-1182",
    "SUBJID": "1182",
    "SITEID": "703",
    "AGE": 84,
    "AGEU": "YEARS",
    "SEX": "M",
    "RACE": "WHITE",
    "ETHNIC": "NOT HISPANIC OR LATINO",
    "ARM": "Xanomeline Low Dose",
    "ARMCD": "Xan_Lo",
    "ACTARM": "Xanomeline Low Dose",
    "ACTARMCD": "Xan_Lo",
    "RFSTDTC": "2013-10-17",
    "RFENDTC": "2013-12-12",
    "DTHDTC": "",
    "DTHFL": null,
    "COUNTRY": "USA",
    "TRT01P": "Xanomeline Low Dose",
    "TRT01A": "Xanomeline Low Dose",
    "TRT01PN": 1,
    "TRT01AN": 1,
    "AGEGR1": ">80",
    "AGEGR1N": 3,
    "RACEN": 1,
    "TRTSDT": "2013-10-17",
    "TRTEDT": "2013-12-11",
    "TRTDUR": 56,
    "EOSSTT": "DISCONTINUED",
    "DCSREAS": "ADVERSE EVENT",
    "DISDT": "2013-12-12",
    "COMP16FL": "N",
    "COMP24FL": "N",
    "COMP8FL": "Y",
    "EFFFL": "Y",
    "ITTFL": "Y",
    "SAFFL": "Y",
    "EDUCLVL": 12,
    "MMSETOT": null,
    "DISONSDT": "2011-09-27",
    "DURDIS": 24.3778,
    "DURDSGR1": ">=12",
    "WEIGHTBL": 68.04,
    "HEIGHTBL": null,
    "BMIBL": null,
    "BMIBLGR1": null,
    "DTHDT": null,
    "SITEGR1": "703"
  },
  {
    "STUDYID": "CDISCPILOT01",
    "USUBJID": "01-703-1197",
    "SUBJID": "1197",
    "SITEID": "703",
    "AGE": 76,
    "AGEU": "YEARS",
    "SEX": "F",
    "RACE": "BLACK OR AFRICAN AMERICAN",
    "ETHNIC": "NOT HISPANIC OR LATINO",
    "ARM": "Xanomeline Low Dose",
    "ARMCD": "Xan_Lo",
    "ACTARM": "Xanomeline Low Dose",
    "ACTARMCD": "Xan_Lo",
    "RFSTDTC": "2013-06-16",
    "RFENDTC": "2013-07-22",
    "DTHDTC": "",
    "DTHFL": null,
    "COUNTRY": "USA",
    "TRT01P": "Xanomeline Low Dose",
    "TRT01A": "Xanomeline Low Dose",
    "TRT01PN": 1,
    "TRT01AN": 1,
    "AGEGR1": "65-80",
    "AGEGR1N": 2,
    "RACEN": 2,
    "TRTSDT": "2013-06-16",
    "TRTEDT": "2013-06-29",
    "TRTDUR": 14,
    "EOSSTT": "DISCONTINUED",
    "DCSREAS": "WITHDRAWAL BY SUBJECT",
    "DISDT": "2013-07-22",
    "COMP16FL": "N",
    "COMP24FL": "N",
    "COMP8FL": "N",
    "EFFFL": "Y",
    "ITTFL": "Y",
    "SAFFL": "Y",
    "EDUCLVL": 5,
    "MMSETOT": null,
    "DISONSDT": "2012-01-11",
    "DURDIS": 16.6571,
    "DURDSGR1": ">=12",
    "WEIGHTBL": 102.06,
    "HEIGHTBL": null,
    "BMIBL": null,
    "BMIBLGR1": null,
    "DTHDT": null,
    "SITEGR1": "703"
  },
  {
    "STUDYID": "CDISCPILOT01",
    "USUBJID": "01-703-1210",
    "SUBJID": "1210",
    "SITEID": "703",
    "AGE": 72,
    "AGEU": "YEARS",
    "SEX": "F",
    "RACE": "WHITE",
    "ETHNIC": "NOT HISPANIC OR LATINO",
    "ARM": "Placebo",
    "ARMCD": "Pbo",
    "ACTARM": "Placebo",
    "ACTARMCD": "Pbo",
    "RFSTDTC": "2013-03-16",
    "RFENDTC": "2013-09-06",
    "DTHDTC": "",
    "DTHFL": null,
    "COUNTRY": "USA",
    "TRT01P": "Placebo",
    "TRT01A": "Placebo",
    "TRT01PN": 0,
    "TRT01AN": 0,
    "AGEGR1": "65-80",
    "AGEGR1N": 2,
    "RACEN": 1,
    "TRTSDT": "2013-03-16",
    "TRTEDT": "2013-09-06",
    "TRTDUR": 175,
    "EOSSTT": "COMPLETED",
    "DCSREAS": null,
    "DISDT": "2013-09-06",
    "COMP16FL": "Y",
    "COMP24FL": "Y",
    "COMP8FL": "Y",
    "EFFFL": "Y",
    "ITTFL": "Y",
    "SAFFL": "Y",
    "EDUCLVL": 12,
    "MMSETOT": null,
    "DISONSDT": "2010-02-18",
    "DURDIS": 36.5996,
    "DURDSGR1": ">=12",
    "WEIGHTBL": 49.9,
    "HEIGHTBL": null,
    "BMIBL": null,
    "BMIBLGR1": null,
    "DTHDT": null,
    "SITEGR1": "703"
  },
  {
    "STUDYID": "CDISCPILOT01",
    "USUBJID": "01-703-1258",
    "SUBJID": "1258",
    "SITEID": "703",
    "AGE": 78,
    "AGEU": "YEARS",
    "SEX": "F",
    "RACE": "WHITE",
    "ETHNIC": "NOT HISPANIC OR LATINO",
    "ARM": "Xanomeline High Dose",
    "ARMCD": "Xan_Hi",
    "ACTARM": "Xanomeline High Dose",
    "ACTARMCD": "Xan_Hi",
    "RFSTDTC": "2012-07-20",
    "RFENDTC": "2013-01-21",
    "DTHDTC": "",
    "DTHFL": null,
    "COUNTRY": "USA",
    "TRT01P": "Xanomeline High Dose",
    "TRT01A": "Xanomeline High Dose",
    "TRT01PN": 2,
    "TRT01AN": 2,
    "AGEGR1": "65-80",
    "AGEGR1N": 2,
    "RACEN": 1,
    "TRTSDT": "2012-07-20",
    "TRTEDT": "2013-01-11",
    "TRTDUR": 176,
    "EOSSTT": "DISCONTINUED",
    "DCSREAS": "ADVERSE EVENT",
    "DISDT": "2013-01-21",
    "COMP16FL": "Y",
    "COMP24FL": "Y",
    "COMP8FL": "Y",
    "EFFFL": "Y",
    "ITTFL": "Y",
    "SAFFL": "Y",
    "EDUCLVL": 12,
    "MMSETOT": null,
    "DISONSDT": "2006-02-17",
    "DURDIS": 76.7146,
    "DURDSGR1": ">=12",
    "WEIGHTBL": 59.42,
    "HEIGHTBL": null,
    "BMIBL": null,
    "BMIBLGR1": null,
    "DTHDT": null,
    "SITEGR1": "703"
  },
  {
    "STUDYID": "CDISCPILOT01",
    "USUBJID": "01-703-1279",
    "SUBJID": "1279",
    "SITEID": "703",
    "AGE": 72,
    "AGEU": "YEARS",
    "SEX": "F",
    "RACE": "WHITE",
    "ETHNIC": "NOT HISPANIC OR LATINO",
    "ARM": "Xanomeline Low Dose",
    "ARMCD": "Xan_Lo",
    "ACTARM": "Xanomeline Low Dose",
    "ACTARMCD": "Xan_Lo",
    "RFSTDTC": "2013-05-13",
    "RFENDTC": "2013-06-22",
    "DTHDTC": "",
    "DTHFL": null,
    "COUNTRY": "USA",
    "TRT01P": "Xanomeline Low Dose",
    "TRT01A": "Xanomeline Low Dose",
    "TRT01PN": 1,
    "TRT01AN": 1,
    "AGEGR1": "65-80",
    "AGEGR1N": 2,
    "RACEN": 1,
    "TRTSDT": "2013-05-13",
    "TRTEDT": "2013-06-03",
    "TRTDUR": 22,
    "EOSSTT": "DISCONTINUED",
    "DCSREAS": "WITHDRAWAL BY SUBJECT",
    "DISDT": "2013-06-22",
    "COMP16FL": "N",
    "COMP24FL": "N",
    "COMP8FL": "N",
    "EFFFL": "N",
    "ITTFL": "Y",
    "SAFFL": "Y",
    "EDUCLVL": 12,
    "MMSETOT": null,
    "DISONSDT": "2010-07-29",
    "DURDIS": 32.9528,
    "DURDSGR1": ">=12",
    "WEIGHTBL": 55.79,
    "HEIGHTBL": null,
    "BMIBL": null,
    "BMIBLGR1": null,
    "DTHDT": null,
    "SITEGR1": "703"
  },
  {
    "STUDYID": "CDISCPILOT01",
    "USUBJID": "01-703-1295",
    "SUBJID": "1295",
    "SITEID": "703",
    "AGE": 88,
    "AGEU": "YEARS",
    "SEX": "F",
    "RACE": "WHITE",
    "ETHNIC": "NOT HISPANIC OR LATINO",
    "ARM": "Xanomeline High Dose",
    "ARMCD": "Xan_Hi",
    "ACTARM": "Xanomeline High Dose",
    "ACTARMCD": "Xan_Hi",
    "RFSTDTC": "2013-11-21",
    "RFENDTC": "2014-05-19",
    "DTHDTC": "",
    "DTHFL": null,
    "COUNTRY": "USA",
    "TRT01P": "Xanomeline High Dose",
    "TRT01A": "Xanomeline High Dose",
    "TRT01PN": 2,
    "TRT01AN": 2,
    "AGEGR1": ">80",
    "AGEGR1N": 3,
    "RACEN": 1,
    "TRTSDT": "2013-11-21",
    "TRTEDT": "2014-04-19",
    "TRTDUR": 150,
    "EOSSTT": "DISCONTINUED",
    "DCSREAS": "WITHDRAWAL BY SUBJECT",
    "DISDT": "2014-05-19",
    "COMP16FL": "Y",
    "COMP24FL": "N",
    "COMP8FL": "Y",
    "EFFFL": "Y",
    "ITTFL": "Y",
    "SAFFL": "Y",
    "EDUCLVL": 8,
    "MMSETOT": null,
    "DISONSDT": "2012-04-05",
    "DURDIS": 18.6283,
    "DURDSGR1": ">=12",
    "WEIGHTBL": 56.25,
    "HEIGHTBL": null,
    "BMIBL": null,
    "BMIBLGR1": null,
    "DTHDT": null,
    "SITEGR1": "703"
  },
  {
    "STUDYID": "CDISCPILOT01",
    "USUBJID": "01-703-1299",
    "SUBJID": "1299",
    "SITEID": "703",
    "AGE": 81,
    "AGEU": "YEARS",
    "SEX": "F",
    "RACE": "WHITE",
    "ETHNIC": "NOT HISPANIC OR LATINO",
    "ARM": "Placebo",
    "ARMCD": "Pbo",
    "ACTARM": "Placebo",
    "ACTARMCD": "Pbo",
    "RFSTDTC": "2012-09-12",
    "RFENDTC": "2013-03-13",
    "DTHDTC": "",
    "DTHFL": null,
    "COUNTRY": "USA",
    "TRT01P": "Placebo",
    "TRT01A": "Placebo",
    "TRT01PN": 0,
    "TRT01AN": 0,
    "AGEGR1": ">80",
    "AGEGR1N": 3,
    "RACEN": 1,
    "TRTSDT": "2012-09-12",
    "TRTEDT": "2013-03-13",
    "TRTDUR": 183,
    "EOSSTT": "COMPLETED",
    "DCSREAS": null,
    "DISDT": "2013-03-13",
    "COMP16FL": "Y",
    "COMP24FL": "Y",
    "COMP8FL": "Y",
    "EFFFL": "Y",
    "ITTFL": "Y",
    "SAFFL": "Y",
    "EDUCLVL": 12,
    "MMSETOT": null,
    "DISONSDT": "2011-09-16",
    "DURDIS": 11.729,
    "DURDSGR1": "<12",
    "WEIGHTBL": 45.36,
    "HEIGHTBL": null,
    "BMIBL": null,
    "BMIBLGR1": null,
    "DTHDT": null,
    "SITEGR1": "703"
  },
  {
    "STUDYID": "CDISCPILOT01",
    "USUBJID": "01-703-1335",
    "SUBJID": "1335",
    "SITEID": "703",
    "AGE": 67,
    "AGEU": "YEARS",
    "SEX": "F",
    "RACE": "BLACK OR AFRICAN AMERICAN",
    "ETHNIC": "NOT HISPANIC OR LATINO",
    "ARM": "Xanomeline High Dose",
    "ARMCD": "Xan_Hi",
    "ACTARM": "Xanomeline High Dose",
    "ACTARMCD": "Xan_Hi",
    "RFSTDTC": "2014-03-17",
    "RFENDTC": "2014-05-24",
    "DTHDTC": "",
    "DTHFL": null,
    "COUNTRY": "USA",
    "TRT01P": "Xanomeline High Dose",
    "TRT01A": "Xanomeline High Dose",
    "TRT01PN": 2,
    "TRT01AN": 2,
    "AGEGR1": "65-80",
    "AGEGR1N": 2,
    "RACEN": 2,
    "TRTSDT": "2014-03-17",
    "TRTEDT": "2014-05-07",
    "TRTDUR": 52,
    "EOSSTT": "DISCONTINUED",
    "DCSREAS": "PROTOCOL VIOLATION",
    "DISDT": "2014-05-24",
    "COMP16FL": "N",
    "COMP24FL": "N",
    "COMP8FL": "N",
    "EFFFL": "Y",
    "ITTFL": "Y",
    "SAFFL": "Y",
    "EDUCLVL": 11,
    "MMSETOT": null,
    "DISONSDT": "2008-01-30",
    "DURDIS": 72.9692,
    "DURDSGR1": ">=12",
    "WEIGHTBL": 55.34,
    "HEIGHTBL": null,
    "BMIBL": null,
    "BMIBLGR1": null,
    "DTHDT": null,
    "SITEGR1": "703"
  },
  {
    "STUDYID": "CDISCPILOT01",
    "USUBJID": "01-703-1379",
    "SUBJID": "1379",
    "SITEID": "703",
    "AGE": 81,
    "AGEU": "YEARS",
    "SEX": "F",
    "RACE": "BLACK OR AFRICAN AMERICAN",
    "ETHNIC": "NOT HISPANIC OR LATINO",
    "ARM": "Xanomeline Low Dose",
    "ARMCD": "Xan_Lo",
    "ACTARM": "Xanomeline Low Dose",
    "ACTARMCD": "Xan_Lo",
    "RFSTDTC": "2013-09-22",
    "RFENDTC": "2014-03-21",
    "DTHDTC": "",
    "DTHFL": null,
    "COUNTRY": "USA",
    "TRT01P": "Xanomeline Low Dose",
    "TRT01A": "Xanomeline Low Dose",
    "TRT01PN": 1,
    "TRT01AN": 1,
    "AGEGR1": ">80",
    "AGEGR1N": 3,
    "RACEN": 2,
    "TRTSDT": "2013-09-22",
    "TRTEDT": "2014-03-21",
    "TRTDUR": 181,
    "EOSSTT": "COMPLETED",
    "DCSREAS": null,
    "DISDT": "2014-03-21",
    "COMP16FL": "Y",
    "COMP24FL": "Y",
    "COMP8FL": "Y",
    "EFFFL": "Y",
    "ITTFL": "Y",
    "SAFFL": "Y",
    "EDUCLVL": 7,
    "MMSETOT": null,
    "DISONSDT": "2009-09-21",
    "DURDIS": 47.7043,
    "DURDSGR1": ">=12",
    "WEIGHTBL": 76.2,
    "HEIGHTBL": null,
    "BMIBL": null,
    "BMIBLGR1": null,
    "DTHDT": null,
    "SITEGR1": "703"
  },
  {
    "STUDYID": "CDISCPILOT01",
    "USUBJID": "01-703-1396",
    "SUBJID": "1396",
    "SITEID": "703",
    "AGE": 84,
    "AGEU": "YEARS",
    "SEX": "M",
    "RACE": "ASIAN",
    "ETHNIC": "NOT HISPANIC OR LATINO",
    "ARM": "Screen Failure",
    "ARMCD": "Scrnfail",
    "ACTARM": "Screen Failure",
    "ACTARMCD": "Scrnfail",
    "RFSTDTC": "",
    "RFENDTC": "",
    "DTHDTC": "",
    "DTHFL": null,
    "COUNTRY": "USA",
    "TRT01P": "Screen Failure",
    "TRT01A": "Screen Failure",
    "TRT01PN": null,
    "TRT01AN": null,
    "AGEGR1": ">80",
    "AGEGR1N": 3,
    "RACEN": null,
    "TRTSDT": null,
    "TRTEDT": null,
    "TRTDUR": null,
    "EOSSTT": "DISCONTINUED",
    "DCSREAS": "SCREEN FAILURE",
    "DISDT": "2014-02-09",
    "COMP16FL": "N",
    "COMP24FL": "N",
    "COMP8FL": "N",
    "EFFFL": "N",
    "ITTFL": "N",
    "SAFFL": "N",
    "EDUCLVL": null,
    "MMSETOT": null,
    "DISONSDT": null,
    "DURDIS": null,
    "DURDSGR1": ">=12",
    "WEIGHTBL": null,
    "HEIGHTBL": null,
    "BMIBL": null,
    "BMIBLGR1": null,
    "DTHDT": null,
    "SITEGR1": "703"
  },
  {
    "STUDYID": "CDISCPILOT01",
    "USUBJID": "01-703-1403",
    "SUBJID": "1403",
    "SITEID": "703",
    "AGE": 67,
    "AGEU": "YEARS",
    "SEX": "M",
    "RACE": "WHITE",
    "ETHNIC": "NOT HISPANIC OR LATINO",
    "ARM": "Xanomeline High Dose",
    "ARMCD": "Xan_Hi",
    "ACTARM": "Xanomeline Low Dose",
    "ACTARMCD": "Xan_Lo",
    "RFSTDTC": "2012-12-12",
    "RFENDTC": "2012-12-19",
    "DTHDTC": "",
    "DTHFL": null,
    "COUNTRY": "USA",
    "TRT01P": "Xanomeline High Dose",
    "TRT01A": "Xanomeline Low Dose",
    "TRT01PN": 2,
    "TRT01AN": 1,
    "AGEGR1": "65-80",
    "AGEGR1N": 2,
    "RACEN": 1,
    "TRTSDT": "2012-12-12",
    "TRTEDT": "2012-12-13",
    "TRTDUR": 2,
    "EOSSTT": "DISCONTINUED",
    "DCSREAS": "ADVERSE EVENT",
    "DISDT": "2012-12-19",
    "COMP16FL": "N",
    "COMP24FL": "N",
    "COMP8FL": "N",
    "EFFFL": "N",
    "ITTFL": "Y",
    "SAFFL": "Y",
    "EDUCLVL": 12,
    "MMSETOT": null,
    "DISONSDT": "2010-12-07",
    "DURDIS": 23.9507,
    "DURDSGR1": ">=12",
    "WEIGHTBL": 80.29,
    "HEIGHTBL": null,
    "BMIBL": null,
    "BMIBLGR1": null,
    "DTHDT": null,
    "SITEGR1": "703"
  },
  {
    "STUDYID": "CDISCPILOT01",
    "USUBJID": "01-703-1439",
    "SUBJID": "1439",
    "SITEID": "703",
    "AGE": 76,
    "AGEU": "YEARS",
    "SEX": "F",
    "RACE": "WHITE",
    "ETHNIC": "NOT HISPANIC OR LATINO",
    "ARM": "Xanomeline High Dose",
    "ARMCD": "Xan_Hi",
    "ACTARM": "Xanomeline High Dose",
    "ACTARMCD": "Xan_Hi",
    "RFSTDTC": "2014-03-12",
    "RFENDTC": "2014-09-11",
    "DTHDTC": "",
    "DTHFL": null,
    "COUNTRY": "USA",
    "TRT01P": "Xanomeline High Dose",
    "TRT01A": "Xanomeline High Dose",
    "TRT01PN": 2,
    "TRT01AN": 2,
    "AGEGR1": "65-80",
    "AGEGR1N": 2,
    "RACEN": 1,
    "TRTSDT": "2014-03-12",
    "TRTEDT": "2014-09-11",
    "TRTDUR": 184,
    "EOSSTT": "COMPLETED",
    "DCSREAS": null,
    "DISDT": "2014-09-11",
    "COMP16FL": "Y",
    "COMP24FL": "Y",
    "COMP8FL": "Y",
    "EFFFL": "Y",
    "ITTFL": "Y",
    "SAFFL": "Y",
    "EDUCLVL": 12,
    "MMSETOT": null,
    "DISONSDT": "2010-07-29",
    "DURDIS": 43.1704,
    "DURDSGR1": ">=12",
    "WEIGHTBL": 63.5,
    "HEIGHTBL": null,
    "BMIBL": null,
    "BMIBLGR1": null,
    "DTHDT": null,
    "SITEGR1": "703"
  },
  {
    "STUDYID": "CDISCPILOT01",
    "USUBJID": "01-704-1008",
    "SUBJID": "1008",
    "SITEID": "704",
    "AGE": 76,
    "AGEU": "YEARS",
    "SEX": "F",
    "RACE": "WHITE",
    "ETHNIC": "NOT HISPANIC OR LATINO",
    "ARM": "Xanomeline High Dose",
    "ARMCD": "Xan_Hi",
    "ACTARM": "Xanomeline High Dose",
    "ACTARMCD": "Xan_Hi",
    "RFSTDTC": "2013-01-13",
    "RFENDTC": "2013-02-25",
    "DTHDTC": "",
    "DTHFL": null,
    "COUNTRY": "USA",
    "TRT01P": "Xanomeline High Dose",
    "TRT01A": "Xanomeline High Dose",
    "TRT01PN": 2,
    "TRT01AN": 2,
    "AGEGR1": "65-80",
    "AGEGR1N": 2,
    "RACEN": 1,
    "TRTSDT": "2013-01-13",
    "TRTEDT": "2013-02-21",
    "TRTDUR": 40,
    "EOSSTT": "DISCONTINUED",
    "DCSREAS": "ADVERSE EVENT",
    "DISDT": "2013-02-25",
    "COMP16FL": "N",
    "COMP24FL": "N",
    "COMP8FL": "N",
    "EFFFL": "Y",
    "ITTFL": "Y",
    "SAFFL": "Y",
    "EDUCLVL": 12,
    "MMSETOT": null,
    "DISONSDT": "2011-10-17",
    "DURDIS": 14.6858,
    "DURDSGR1": ">=12",
    "WEIGHTBL": 46.72,
    "HEIGHTBL": null,
    "BMIBL": null,
    "BMIBLGR1": null,
    "DTHDT": null,
    "SITEGR1": "704"
  },
  {
    "STUDYID": "CDISCPILOT01",
    "USUBJID": "01-704-1009",
    "SUBJID": "1009",
    "SITEID": "704",
    "AGE": 83,
    "AGEU": "YEARS",
    "SEX": "M",
    "RACE": "WHITE",
    "ETHNIC": "NOT HISPANIC OR LATINO",
    "ARM": "Xanomeline Low Dose",
    "ARMCD": "Xan_Lo",
    "ACTARM": "Xanomeline Low Dose",
    "ACTARMCD": "Xan_Lo",
    "RFSTDTC": "2013-08-27",
    "RFENDTC": "2013-10-02",
    "DTHDTC": "",
    "DTHFL": null,
    "COUNTRY": "USA",
    "TRT01P": "Xanomeline Low Dose",
    "TRT01A": "Xanomeline Low Dose",
    "TRT01PN": 1,
    "TRT01AN": 1,
    "AGEGR1": ">80",
    "AGEGR1N": 3,
    "RACEN": 1,
    "TRTSDT": "2013-08-27",
    "TRTEDT": "2013-09-25",
    "TRTDUR": 30,
    "EOSSTT": "DISCONTINUED",
    "DCSREAS": "WITHDRAWAL BY SUBJECT",
    "DISDT": "2013-10-02",
    "COMP16FL": "N",
    "COMP24FL": "N",
    "COMP8FL": "N",
    "EFFFL": "Y",
    "ITTFL": "Y",
    "SAFFL": "Y",
    "EDUCLVL": 16,
    "MMSETOT": null,
    "DISONSDT": "2009-02-03",
    "DURDIS": 54.5051,
    "DURDSGR1": ">=12",
    "WEIGHTBL": 66.68,
    "HEIGHTBL": null,
    "BMIBL": null,
    "BMIBLGR1": null,
    "DTHDT": null,
    "SITEGR1": "704"
  },
  {
    "STUDYID": "CDISCPILOT01",
    "USUBJID": "01-704-1010",
    "SUBJID": "1010",
    "SITEID": "704",
    "AGE": 80,
    "AGEU": "YEARS",
    "SEX": "M",
    "RACE": "WHITE",
    "ETHNIC": "NOT HISPANIC OR LATINO",
    "ARM": "Placebo",
    "ARMCD": "Pbo",
    "ACTARM": "Placebo",
    "ACTARMCD": "Pbo",
    "RFSTDTC": "2014-02-21",
    "RFENDTC": "2014-07-09",
    "DTHDTC": "",
    "DTHFL": null,
    "COUNTRY": "USA",
    "TRT01P": "Placebo",
    "TRT01A": "Placebo",
    "TRT01PN": 0,
    "TRT01AN": 0,
    "AGEGR1": "65-80",
    "AGEGR1N": 2,
    "RACEN": 1,
    "TRTSDT": "2014-02-21",
    "TRTEDT": "2014-07-08",
    "TRTDUR": 138,
    "EOSSTT": "DISCONTINUED",
    "DCSREAS": "WITHDRAWAL BY SUBJECT",
    "DISDT": "2014-07-09",
    "COMP16FL": "Y",
    "COMP24FL": "N",
    "COMP8FL": "Y",
    "EFFFL": "Y",
    "ITTFL": "Y",
    "SAFFL": "Y",
    "EDUCLVL": 14,
    "MMSETOT": null,
    "DISONSDT": "2006-01-02",
    "DURDIS": 97.2156,
    "DURDSGR1": ">=12",
    "WEIGHTBL": 80.97,
    "HEIGHTBL": null,
    "BMIBL": null,
    "BMIBLGR1": null,
    "DTHDT": null,
    "SITEGR1": "704"
  },
  {
    "STUDYID": "CDISCPILOT01",
    "USUBJID": "01-704-1017",
    "SUBJID": "1017",
    "SITEID": "704",
    "AGE": 77,
    "AGEU": "YEARS",
    "SEX": "M",
    "RACE": "WHITE",
    "ETHNIC": "NOT HISPANIC OR LATINO",
    "ARM": "Xanomeline High Dose",
    "ARMCD": "Xan_Hi",
    "ACTARM": "Xanomeline High Dose",
    "ACTARMCD": "Xan_Hi",
    "RFSTDTC": "2013-10-06",
    "RFENDTC": "2013-11-24",
    "DTHDTC": "",
    "DTHFL": null,
    "COUNTRY": "USA",
    "TRT01P": "Xanomeline High Dose",
    "TRT01A": "Xanomeline High Dose",
    "TRT01PN": 2,
    "TRT01AN": 2,
    "AGEGR1": "65-80",
    "AGEGR1N": 2,
    "RACEN": 1,
    "TRTSDT": "2013-10-06",
    "TRTEDT": "2013-11-18",
    "TRTDUR": 44,
    "EOSSTT": "DISCONTINUED",
    "DCSREAS": "ADVERSE EVENT",
    "DISDT": "2013-11-24",
    "COMP16FL": "N",
    "COMP24FL": "N",
    "COMP8FL": "N",
    "EFFFL": "Y",
    "ITTFL": "Y",
    "SAFFL": "Y",
    "EDUCLVL": 12,
    "MMSETOT": null,
    "DISONSDT": "2011-03-27",
    "DURDIS": 29.8316,
    "DURDSGR1": ">=12",
    "WEIGHTBL": 63.05,
    "HEIGHTBL": null,
    "BMIBL": null,
    "BMIBLGR1": null,
    "DTHDT": null,
    "SITEGR1": "704"
  },
  {
    "STUDYID": "CDISCPILOT01",
    "USUBJID": "01-704-1025",
    "SUBJID": "1025",
    "SITEID": "704",
    "AGE": 81,
    "AGEU": "YEARS",
    "SEX": "F",
    "RACE": "WHITE",
    "ETHNIC": "NOT HISPANIC OR LATINO",
    "ARM": "Xanomeline Low Dose",
    "ARMCD": "Xan_Lo",
    "ACTARM": "Xanomeline Low Dose",
    "ACTARMCD": "Xan_Lo",
    "RFSTDTC": "2013-09-27",
    "RFENDTC": "2013-11-29",
    "DTHDTC": "",
    "DTHFL": null,
    "COUNTRY": "USA",
    "TRT01P": "Xanomeline Low Dose",
    "TRT01A": "Xanomeline Low Dose",
    "TRT01PN": 1,
    "TRT01AN": 1,
    "AGEGR1": ">80",
    "AGEGR1N": 3,
    "RACEN": 1,
    "TRTSDT": "2013-09-27",
    "TRTEDT": "2013-10-24",
    "TRTDUR": 28,
    "EOSSTT": "DISCONTINUED",
    "DCSREAS": "ADVERSE EVENT",
    "DISDT": "2013-11-29",
    "COMP16FL": "N",
    "COMP24FL": "N",
    "COMP8FL": "N",
    "EFFFL": "Y",
    "ITTFL": "Y",
    "SAFFL": "Y",
    "EDUCLVL": 18,
    "MMSETOT": null,
    "DISONSDT": "2012-03-03",
    "DURDIS": 18.5298,
    "DURDSGR1": ">=12",
    "WEIGHTBL": 55.52,
    "HEIGHTBL": null,
    "BMIBL": null,
    "BMIBLGR1": null,
    "DTHDT": null,
    "SITEGR1": "704"
  },
  {
    "STUDYID": "CDISCPILOT01",
    "USUBJID": "01-704-1065",
    "SUBJID": "1065",
    "SITEID": "704",
    "AGE": 75,
    "AGEU": "YEARS",
    "SEX": "M",
    "RACE": "WHITE",
    "ETHNIC": "NOT HISPANIC OR LATINO",
    "ARM": "Xanomeline High Dose",
    "ARMCD": "Xan_Hi",
    "ACTARM": "Xanomeline High Dose",
    "ACTARMCD": "Xan_Hi",
    "RFSTDTC": "2013-10-24",
    "RFENDTC": "2013-12-24",
    "DTHDTC": "",
    "DTHFL": null,
    "COUNTRY": "USA",
    "TRT01P": "Xanomeline High Dose",
    "TRT01A": "Xanomeline High Dose",
    "TRT01PN": 2,
    "TRT01AN": 2,
    "AGEGR1": "65-80",
    "AGEGR1N": 2,
    "RACEN": 1,
    "TRTSDT": "2013-10-24",
    "TRTEDT": "2013-12-22",
    "TRTDUR": 60,
    "EOSSTT": "DISCONTINUED",
    "DCSREAS": "ADVERSE EVENT",
    "DISDT": "2013-12-24",
    "COMP16FL": "N",
    "COMP24FL": "N",
    "COMP8FL": "Y",
    "EFFFL": "Y",
    "ITTFL": "Y",
    "SAFFL": "Y",
    "EDUCLVL": 12,
    "MMSETOT": null,
    "DISONSDT": "2010-03-23",
    "DURDIS": 42.8419,
    "DURDSGR1": ">=12",
    "WEIGHTBL": 80.74,
    "HEIGHTBL": null,
    "BMIBL": null,
    "BMIBLGR1": null,
    "DTHDT": null,
    "SITEGR1": "704"
  },
  {
    "STUDYID": "CDISCPILOT01",
    "USUBJID": "01-704-1074",
    "SUBJID": "1074",
    "SITEID": "704",
    "AGE": 80,
    "AGEU": "YEARS",
    "SEX": "F",
    "RACE": "WHITE",
    "ETHNIC": "NOT HISPANIC OR LATINO",
    "ARM": "Xanomeline High Dose",
    "ARMCD": "Xan_Hi",
    "ACTARM": "Xanomeline High Dose",
    "ACTARMCD": "Xan_Hi",
    "RFSTDTC": "2014-01-22",
    "RFENDTC": "2014-03-31",
    "DTHDTC": "",
    "DTHFL": null,
    "COUNTRY": "USA",
    "TRT01P": "Xanomeline High Dose",
    "TRT01A": "Xanomeline High Dose",
    "TRT01PN": 2,
    "TRT01AN": 2,
    "AGEGR1": "65-80",
    "AGEGR1N": 2,
    "RACEN": 1,
    "TRTSDT": "2014-01-22",
    "TRTEDT": "2014-03-20",
    "TRTDUR": 58,
    "EOSSTT": "DISCONTINUED",
    "DCSREAS": "ADVERSE EVENT",
    "DISDT": "2014-03-31",
    "COMP16FL": "N",
    "COMP24FL": "N",
    "COMP8FL": "Y",
    "EFFFL": "Y",
    "ITTFL": "Y",
    "SAFFL": "Y",
    "EDUCLVL": 16,
    "MMSETOT": null,
    "DISONSDT": "2009-01-30",
    "DURDIS": 59.6304,
    "DURDSGR1": ">=12",
    "WEIGHTBL": 75.75,
    "HEIGHTBL": null,
    "BMIBL": null,
    "BMIBLGR1": null,
    "DTHDT": null,
    "SITEGR1": "704"
  },
  {
    "STUDYID": "CDISCPILOT01",
    "USUBJID": "01-704-1093",
    "SUBJID": "1093",
    "SITEID": "704",
    "AGE": 79,
    "AGEU": "YEARS",
    "SEX": "M",
    "RACE": "WHITE",
    "ETHNIC": "NOT HISPANIC OR LATINO",
    "ARM": "Xanomeline High Dose",
    "ARMCD": "Xan_Hi",
    "ACTARM": "Xanomeline High Dose",
    "ACTARMCD": "Xan_Hi",
    "RFSTDTC": "2013-03-15",
    "RFENDTC": "2013-06-20",
    "DTHDTC": "",
    "DTHFL": null,
    "COUNTRY": "USA",
    "TRT01P": "Xanomeline High Dose",
    "TRT01A": "Xanomeline High Dose",
    "TRT01PN": 2,
    "TRT01AN": 2,
    "AGEGR1": "65-80",
    "AGEGR1N": 2,
    "RACEN": 1,
    "TRTSDT": "2013-03-15",
    "TRTEDT": "2013-06-17",
    "TRTDUR": 95,
    "EOSSTT": "DISCONTINUED",
    "DCSREAS": "ADVERSE EVENT",
    "DISDT": "2013-06-20",
    "COMP16FL": "Y",
    "COMP24FL": "N",
    "COMP8FL": "Y",
    "EFFFL": "Y",
    "ITTFL": "Y",
    "SAFFL": "Y",
    "EDUCLVL": 12,
    "MMSETOT": null,
    "DISONSDT": "2010-07-17",
    "DURDIS": 31.2444,
    "DURDSGR1": ">=12",
    "WEIGHTBL": 73.48,
    "HEIGHTBL": null,
    "BMIBL": null,
    "BMIBLGR1": null,
    "DTHDT": null,
    "SITEGR1": "704"
  },
  {
    "STUDYID": "CDISCPILOT01",
    "USUBJID": "01-704-1114",
    "SUBJID": "1114",
    "SITEID": "704",
    "AGE": 77,
    "AGEU": "YEARS",
    "SEX": "M",
    "RACE": "WHITE",
    "ETHNIC": "NOT HISPANIC OR LATINO",
    "ARM": "Xanomeline Low Dose",
    "ARMCD": "Xan_Lo",
    "ACTARM": "Xanomeline Low Dose",
    "ACTARMCD": "Xan_Lo",
    "RFSTDTC": "2013-01-23",
    "RFENDTC": "2013-07-08",
    "DTHDTC": "",
    "DTHFL": null,
    "COUNTRY": "USA",
    "TRT01P": "Xanomeline Low Dose",
    "TRT01A": "Xanomeline Low Dose",
    "TRT01PN": 1,
    "TRT01AN": 1,
    "AGEGR1": "65-80",
    "AGEGR1N": 2,
    "RACEN": 1,
    "TRTSDT": "2013-01-23",
    "TRTEDT": "2013-07-07",
    "TRTDUR": 166,
    "EOSSTT": "DISCONTINUED",
    "DCSREAS": "WITHDRAWAL BY SUBJECT",
    "DISDT": "2013-07-08",
    "COMP16FL": "Y",
    "COMP24FL": "Y",
    "COMP8FL": "Y",
    "EFFFL": "Y",
    "ITTFL": "Y",
    "SAFFL": "Y",
    "EDUCLVL": 8,
    "MMSETOT": null,
    "DISONSDT": "2007-03-25",
    "DURDIS": 69.5524,
    "DURDSGR1": ">=12",
    "WEIGHTBL": 77.79,
    "HEIGHTBL": null,
    "BMIBL": null,
    "BMIBLGR1": null,
    "DTHDT": null,
    "SITEGR1": "704"
  },
  {
    "STUDYID": "CDISCPILOT01",
    "USUBJID": "01-704-1120",
    "SUBJID": "1120",
    "SITEID": "704",
    "AGE": 71,
    "AGEU": "YEARS",
    "SEX": "F",
    "RACE": "WHITE",
    "ETHNIC": "NOT HISPANIC OR LATINO",
    "ARM": "Xanomeline Low Dose",
    "ARMCD": "Xan_Lo",
    "ACTARM": "Xanomeline Low Dose",
    "ACTARMCD": "Xan_Lo",
    "RFSTDTC": "2013-12-02",
    "RFENDTC": "2014-02-03",
    "DTHDTC": "",
    "DTHFL": null,
    "COUNTRY": "USA",
    "TRT01P": "Xanomeline Low Dose",
    "TRT01A": "Xanomeline Low Dose",
    "TRT01PN": 1,
    "TRT01AN": 1,
    "AGEGR1": "65-80",
    "AGEGR1N": 2,
    "RACEN": 1,
    "TRTSDT": "2013-12-02",
    "TRTEDT": "2014-02-01",
    "TRTDUR": 62,
    "EOSSTT": "DISCONTINUED",
    "DCSREAS": "ADVERSE EVENT",
    "DISDT": "2014-02-03",
    "COMP16FL": "N",
    "COMP24FL": "N",
    "COMP8FL": "Y",
    "EFFFL": "Y",
    "ITTFL": "Y",
    "SAFFL": "Y",
    "EDUCLVL": 13,
    "MMSETOT": null,
    "DISONSDT": "2007-03-23",
    "DURDIS": 79.9014,
    "DURDSGR1": ">=12",
    "WEIGHTBL": 51.71,
    "HEIGHTBL": null,
    "BMIBL": null,
    "BMIBLGR1": null,
    "DTHDT": null,
    "SITEGR1": "704"
  },
  {
    "STUDYID": "CDISCPILOT01",
    "USUBJID": "01-704-1127",
    "SUBJID": "1127",
    "SITEID": "704",
    "AGE": 84,
    "AGEU": "YEARS",
    "SEX": "F",
    "RACE": "WHITE",
    "ETHNIC": "NOT HISPANIC OR LATINO",
    "ARM": "Placebo",
    "ARMCD": "Pbo",
    "ACTARM": "Placebo",
    "ACTARMCD": "Pbo",
    "RFSTDTC": "2013-10-02",
    "RFENDTC": "2014-03-31",
    "DTHDTC": "",
    "DTHFL": null,
    "COUNTRY": "USA",
    "TRT01P": "Placebo",
    "TRT01A": "Placebo",
    "TRT01PN": 0,
    "TRT01AN": 0,
    "AGEGR1": ">80",
    "AGEGR1N": 3,
    "RACEN": 1,
    "TRTSDT": "2013-10-02",
    "TRTEDT": "2014-03-31",
    "TRTDUR": 181,
    "EOSSTT": "COMPLETED",
    "DCSREAS": null,
    "DISDT": "2014-03-31",
    "COMP16FL": "Y",
    "COMP24FL": "Y",
    "COMP8FL": "Y",
    "EFFFL": "Y",
    "ITTFL": "Y",
    "SAFFL": "Y",
    "EDUCLVL": 12,
    "MMSETOT": null,
    "DISONSDT": "2008-09-11",
    "DURDIS": 60.1561,
    "DURDSGR1": ">=12",
    "WEIGHTBL": 41.05,
    "HEIGHTBL": null,
    "BMIBL": null,
    "BMIBLGR1": null,
    "DTHDT": null,
    "SITEGR1": "704"
  },
  {
    "STUDYID": "CDISCPILOT01",
    "USUBJID": "01-704-1135",
    "SUBJID": "1135",
    "SITEID": "704",
    "AGE": 74,
    "AGEU": "YEARS",
    "SEX": "F",
    "RACE": "WHITE",
    "ETHNIC": "NOT HISPANIC OR LATINO",
    "ARM": "Xanomeline Low Dose",
    "ARMCD": "Xan_Lo",
    "ACTARM": "Xanomeline Low Dose",
    "ACTARMCD": "Xan_Lo",
    "RFSTDTC": "2013-10-31",
    "RFENDTC": "2014-05-16",
    "DTHDTC": "",
    "DTHFL": null,
    "COUNTRY": "USA",
    "TRT01P": "Xanomeline Low Dose",
    "TRT01A": "Xanomeline Low Dose",
    "TRT01PN": 1,
    "TRT01AN": 1,
    "AGEGR1": "65-80",
    "AGEGR1N": 2,
    "RACEN": 1,
    "TRTSDT": "2013-10-31",
    "TRTEDT": "2014-05-16",
    "TRTDUR": 198,
    "EOSSTT": "COMPLETED",
    "DCSREAS": null,
    "DISDT": "2014-05-16",
    "COMP16FL": "Y",
    "COMP24FL": "Y",
    "COMP8FL": "Y",
    "EFFFL": "Y",
    "ITTFL": "Y",
    "SAFFL": "Y",
    "EDUCLVL": 14,
    "MMSETOT": null,
    "DISONSDT": "2010-10-06",
    "DURDIS": 36.5667,
    "DURDSGR1": ">=12",
    "WEIGHTBL": 64.41,
    "HEIGHTBL": null,
    "BMIBL": null,
    "BMIBLGR1": null,
    "DTHDT": null,
    "SITEGR1": "704"
  },
  {
    "STUDYID": "CDISCPILOT01",
    "USUBJID": "01-704-1164",
    "SUBJID": "1164",
    "SITEID": "704",
    "AGE": 67,
    "AGEU": "YEARS",
    "SEX": "F",
    "RACE": "WHITE",
    "ETHNIC": "NOT HISPANIC OR LATINO",
    "ARM": "Placebo",
    "ARMCD": "Pbo",
    "ACTARM": "Placebo",
    "ACTARMCD": "Pbo",
    "RFSTDTC": "2012-09-19",
    "RFENDTC": "2013-04-04",
    "DTHDTC": "",
    "DTHFL": null,
    "COUNTRY": "USA",
    "TRT01P": "Placebo",
    "TRT01A": "Placebo",
    "TRT01PN": 0,
    "TRT01AN": 0,
    "AGEGR1": "65-80",
    "AGEGR1N": 2,
    "RACEN": 1,
    "TRTSDT": "2012-09-19",
    "TRTEDT": "2013-04-04",
    "TRTDUR": 198,
    "EOSSTT": "COMPLETED",
    "DCSREAS": null,
    "DISDT": "2013-04-04",
    "COMP16FL": "Y",
    "COMP24FL": "Y",
    "COMP8FL": "Y",
    "EFFFL": "Y",
    "ITTFL": "Y",
    "SAFFL": "Y",
    "EDUCLVL": 10,
    "MMSETOT": null,
    "DISONSDT": "2011-03-04",
    "DURDIS": 18.2998,
    "DURDSGR1": ">=12",
    "WEIGHTBL": 49.9,
    "HEIGHTBL": null,
    "BMIBL": null,
    "BMIBLGR1": null,
    "DTHDT": null,
    "SITEGR1": "704"
  },
  {
    "STUDYID": "CDISCPILOT01",
    "USUBJID": "01-704-1218",
    "SUBJID": "1218",
    "SITEID": "704",
    "AGE": 81,
    "AGEU": "YEARS",
    "SEX": "F",
    "RACE": "WHITE",
    "ETHNIC": "NOT HISPANIC OR LATINO",
    "ARM": "Xanomeline Low Dose",
    "ARMCD": "Xan_Lo",
    "ACTARM": "Xanomeline Low Dose",
    "ACTARMCD": "Xan_Lo",
    "RFSTDTC": "2012-11-19",
    "RFENDTC": "2013-05-27",
    "DTHDTC": "",
    "DTHFL": null,
    "COUNTRY": "USA",
    "TRT01P": "Xanomeline Low Dose",
    "TRT01A": "Xanomeline Low Dose",
    "TRT01PN": 1,
    "TRT01AN": 1,
    "AGEGR1": ">80",
    "AGEGR1N": 3,
    "RACEN": 1,
    "TRTSDT": "2012-11-19",
    "TRTEDT": "2013-05-27",
    "TRTDUR": 190,
    "EOSSTT": "COMPLETED",
    "DCSREAS": null,
    "DISDT": "2013-05-27",
    "COMP16FL": "Y",
    "COMP24FL": "Y",
    "COMP8FL": "Y",
    "EFFFL": "Y",
    "ITTFL": "Y",
    "SAFFL": "Y",
    "EDUCLVL": 12,
    "MMSETOT": null,
    "DISONSDT": "2010-08-15",
    "DURDIS": 26.9076,
    "DURDSGR1": ">=12",
    "WEIGHTBL": 54.43,
    "HEIGHTBL": null,
    "BMIBL": null,
    "BMIBLGR1": null,
    "DTHDT": null,
    "SITEGR1": "704"
  },
  {
    "STUDYID": "CDISCPILOT01",
    "USUBJID": "01-704-1233",
    "SUBJID": "1233",
    "SITEID": "704",
    "AGE": 87,
    "AGEU": "YEARS",
    "SEX": "F",
    "RACE": "WHITE",
    "ETHNIC": "NOT HISPANIC OR LATINO",
    "ARM": "Placebo",
    "ARMCD": "Pbo",
    "ACTARM": "Placebo",
    "ACTARMCD": "Pbo",
    "RFSTDTC": "2013-03-21",
    "RFENDTC": "2013-07-14",
    "DTHDTC": "",
    "DTHFL": null,
    "COUNTRY": "USA",
    "TRT01P": "Placebo",
    "TRT01A": "Placebo",
    "TRT01PN": 0,
    "TRT01AN": 0,
    "AGEGR1": ">80",
    "AGEGR1N": 3,
    "RACEN": 1,
    "TRTSDT": "2013-03-21",
    "TRTEDT": "2013-04-04",
    "TRTDUR": 15,
    "EOSSTT": "DISCONTINUED",
    "DCSREAS": "WITHDRAWAL BY SUBJECT",
    "DISDT": "2013-07-14",
    "COMP16FL": "Y",
    "COMP24FL": "N",
    "COMP8FL": "Y",
    "EFFFL": "Y",
    "ITTFL": "Y",
    "SAFFL": "Y",
    "EDUCLVL": 16,
    "MMSETOT": null,
    "DISONSDT": "2011-01-15",
    "DURDIS": 25.7248,
    "DURDSGR1": ">=12",
    "WEIGHTBL": 46.27,
    "HEIGHTBL": null,
    "BMIBL": null,
    "BMIBLGR1": null,
    "DTHDT": null,
    "SITEGR1": "704"
  },
  {
    "STUDYID": "CDISCPILOT01",
    "USUBJID": "01-704-1241",
    "SUBJID": "1241",
    "SITEID": "704",
    "AGE": 86,
    "AGEU": "YEARS",
    "SEX": "M",
    "RACE": "WHITE",
    "ETHNIC": "NOT HISPANIC OR LATINO",
    "ARM": "Xanomeline High Dose",
    "ARMCD": "Xan_Hi",
    "ACTARM": "Xanomeline High Dose",
    "ACTARMCD": "Xan_Hi",
    "RFSTDTC": "2013-08-25",
    "RFENDTC": "2013-10-31",
    "DTHDTC": "",
    "DTHFL": null,
    "COUNTRY": "USA",
    "TRT01P": "Xanomeline High Dose",
    "TRT01A": "Xanomeline High Dose",
    "TRT01PN": 2,
    "TRT01AN": 2,
    "AGEGR1": ">80",
    "AGEGR1N": 3,
    "RACEN": 1,
    "TRTSDT": "2013-08-25",
    "TRTEDT": "2013-10-09",
    "TRTDUR": 46,
    "EOSSTT": "DISCONTINUED",
    "DCSREAS": "ADVERSE EVENT",
    "DISDT": "2013-10-31",
    "COMP16FL": "N",
    "COMP24FL": "N",
    "COMP8FL": "Y",
    "EFFFL": "Y",
    "ITTFL": "Y",
    "SAFFL": "Y",
    "EDUCLVL": 14,
    "MMSETOT": null,
    "DISONSDT": "2011-07-25",
    "DURDIS": 24.6735,
    "DURDSGR1": ">=12",
    "WEIGHTBL": 73.03,
    "HEIGHTBL": null,
    "BMIBL": null,
    "BMIBLGR1": null,
    "DTHDT": null,
    "SITEGR1": "704"
  },
  {
    "STUDYID": "CDISCPILOT01",
    "USUBJID": "01-704-1260",
    "SUBJID": "1260",
    "SITEID": "704",
    "AGE": 71,
    "AGEU": "YEARS",
    "SEX": "F",
    "RACE": "WHITE",
    "ETHNIC": "NOT HISPANIC OR LATINO",
    "ARM": "Placebo",
    "ARMCD": "Pbo",
    "ACTARM": "Placebo",
    "ACTARMCD": "Pbo",
    "RFSTDTC": "2012-08-30",
    "RFENDTC": "2013-01-18",
    "DTHDTC": "",
    "DTHFL": null,
    "COUNTRY": "USA",
    "TRT01P": "Placebo",
    "TRT01A": "Placebo",
    "TRT01PN": 0,
    "TRT01AN": 0,
    "AGEGR1": "65-80",
    "AGEGR1N": 2,
    "RACEN": 1,
    "TRTSDT": "2012-08-30",
    "TRTEDT": "2012-11-04",
    "TRTDUR": 67,
    "EOSSTT": "DISCONTINUED",
    "DCSREAS": "WITHDRAWAL BY SUBJECT",
    "DISDT": "2013-01-18",
    "COMP16FL": "N",
    "COMP24FL": "N",
    "COMP8FL": "Y",
    "EFFFL": "Y",
    "ITTFL": "Y",
    "SAFFL": "Y",
    "EDUCLVL": 16,
    "MMSETOT": null,
    "DISONSDT": "2002-11-29",
    "DURDIS": 116.7967,
    "DURDSGR1": ">=12",
    "WEIGHTBL": 48.76,
    "HEIGHTBL": null,
    "BMIBL": null,
    "BMIBLGR1": null,
    "DTHDT": null,
    "SITEGR1": "704"
  },
  {
    "STUDYID": "CDISCPILOT01",
    "USUBJID": "01-704-1266",
    "SUBJID": "1266",
    "SITEID": "704",
    "AGE": 82,
    "AGEU": "YEARS",
    "SEX": "M",
    "RACE": "WHITE",
    "ETHNIC": "NOT HISPANIC OR LATINO",
    "ARM": "Xanomeline High Dose",
    "ARMCD": "Xan_Hi",
    "ACTARM": "Xanomeline High Dose",
    "ACTARMCD": "Xan_Hi",
    "RFSTDTC": "2013-10-13",
    "RFENDTC": "2013-12-06",
    "DTHDTC": "",
    "DTHFL": null,
    "COUNTRY": "USA",
    "TRT01P": "Xanomeline High Dose",
    "TRT01A": "Xanomeline High Dose",
    "TRT01PN": 2,
    "TRT01AN": 2,
    "AGEGR1": ">80",
    "AGEGR1N": 3,
    "RACEN": 1,
    "TRTSDT": "2013-10-13",
    "TRTEDT": "2013-12-06",
    "TRTDUR": 55,
    "EOSSTT": "DISCONTINUED",
    "DCSREAS": "ADVERSE EVENT",
    "DISDT": "2013-12-06",
    "COMP16FL": "N",
    "COMP24FL": "N",
    "COMP8FL": "Y",
    "EFFFL": "Y",
    "ITTFL": "Y",
    "SAFFL": "Y",
    "EDUCLVL": 12,
    "MMSETOT": null,
    "DISONSDT": "2011-12-02",
    "DURDIS": 22.1109,
    "DURDSGR1": ">=12",
    "WEIGHTBL": 88.45,
    "HEIGHTBL": null,
    "BMIBL": null,
    "BMIBLGR1": null,
    "DTHDT": null,
    "SITEGR1": "704"
  },
  {
    "STUDYID": "CDISCPILOT01",
    "USUBJID": "01-704-1323",
    "SUBJID": "1323",
    "SITEID": "704",
    "AGE": 68,
    "AGEU": "YEARS",
    "SEX": "F",
    "RACE": "WHITE",
    "ETHNIC": "NOT HISPANIC OR LATINO",
    "ARM": "Xanomeline Low Dose",
    "ARMCD": "Xan_Lo",
    "ACTARM": "Xanomeline Low Dose",
    "ACTARMCD": "Xan_Lo",
    "RFSTDTC": "2013-07-08",
    "RFENDTC": "2013-08-08",
    "DTHDTC": "",
    "DTHFL": null,
    "COUNTRY": "USA",
    "TRT01P": "Xanomeline Low Dose",
    "TRT01A": "Xanomeline Low Dose",
    "TRT01PN": 1,
    "TRT01AN": 1,
    "AGEGR1": "65-80",
    "AGEGR1N": 2,
    "RACEN": 1,
    "TRTSDT": "2013-07-08",
    "TRTEDT": "2013-08-05",
    "TRTDUR": 29,
    "EOSSTT": "DISCONTINUED",
    "DCSREAS": "ADVERSE EVENT",
    "DISDT": "2013-08-08",
    "COMP16FL": "N",
    "COMP24FL": "N",
    "COMP8FL": "N",
    "EFFFL": "N",
    "ITTFL": "Y",
    "SAFFL": "Y",
    "EDUCLVL": 16,
    "MMSETOT": null,
    "DISONSDT": "2010-03-23",
    "DURDIS": 38.7023,
    "DURDSGR1": ">=12",
    "WEIGHTBL": 59.88,
    "HEIGHTBL": null,
    "BMIBL": null,
    "BMIBLGR1": null,
    "DTHDT": null,
    "SITEGR1": "704"
  },
  {
    "STUDYID": "CDISCPILOT01",
    "USUBJID": "01-704-1325",
    "SUBJID": "1325",
    "SITEID": "704",
    "AGE": 81,
    "AGEU": "YEARS",
    "SEX": "M",
    "RACE": "WHITE",
    "ETHNIC": "NOT HISPANIC OR LATINO",
    "ARM": "Xanomeline Low Dose",
    "ARMCD": "Xan_Lo",
    "ACTARM": "Xanomeline Low Dose",
    "ACTARMCD": "Xan_Lo",
    "RFSTDTC": "2014-04-23",
    "RFENDTC": "2014-08-06",
    "DTHDTC": "",
    "DTHFL": null,
    "COUNTRY": "USA",
    "TRT01P": "Xanomeline Low Dose",
    "TRT01A": "Xanomeline Low Dose",
    "TRT01PN": 1,
    "TRT01AN": 1,
    "AGEGR1": ">80",
    "AGEGR1N": 3,
    "RACEN": 1,
    "TRTSDT": "2014-04-23",
    "TRTEDT": "2014-07-04",
    "TRTDUR": 73,
    "EOSSTT": "DISCONTINUED",
    "DCSREAS": "PROTOCOL VIOLATION",
    "DISDT": "2014-08-06",
    "COMP16FL": "Y",
    "COMP24FL": "N",
    "COMP8FL": "Y",
    "EFFFL": "Y",
    "ITTFL": "Y",
    "SAFFL": "Y",
    "EDUCLVL": 16,
    "MMSETOT": null,
    "DISONSDT": "2008-11-02",
    "DURDIS": 65.4127,
    "DURDSGR1": ">=12",
    "WEIGHTBL": 68.49,
    "HEIGHTBL": null,
    "BMIBL": null,
    "BMIBLGR1": null,
    "DTHDT": null,
    "SITEGR1": "704"
  },
  {
    "STUDYID": "CDISCPILOT01",
    "USUBJID": "01-704-1332",
    "SUBJID": "1332",
    "SITEID": "704",
    "AGE": 80,
    "AGEU": "YEARS",
    "SEX": "M",
    "RACE": "WHITE",
    "ETHNIC": "NOT HISPANIC OR LATINO",
    "ARM": "Xanomeline High Dose",
    "ARMCD": "Xan_Hi",
    "ACTARM": "Xanomeline High Dose",
    "ACTARMCD": "Xan_Hi",
    "RFSTDTC": "2013-12-09",
    "RFENDTC": "2014-02-16",
    "DTHDTC": "",
    "DTHFL": null,
    "COUNTRY": "USA",
    "TRT01P": "Xanomeline High Dose",
    "TRT01A": "Xanomeline High Dose",
    "TRT01PN": 2,
    "TRT01AN": 2,
    "AGEGR1": "65-80",
    "AGEGR1N": 2,
    "RACEN": 1,
    "TRTSDT": "2013-12-09",
    "TRTEDT": "2014-02-14",
    "TRTDUR": 68,
    "EOSSTT": "DISCONTINUED",
    "DCSREAS": "ADVERSE EVENT",
    "DISDT": "2014-02-16",
    "COMP16FL": "N",
    "COMP24FL": "N",
    "COMP8FL": "Y",
    "EFFFL": "Y",
    "ITTFL": "Y",
    "SAFFL": "Y",
    "EDUCLVL": 9,
    "MMSETOT": null,
    "DISONSDT": "2011-11-09",
    "DURDIS": 24.5092,
    "DURDSGR1": ">=12",
    "WEIGHTBL": 78.47,
    "HEIGHTBL": null,
    "BMIBL": null,
    "BMIBLGR1": null,
    "DTHDT": null,
    "SITEGR1": "704"
  },
  {
    "STUDYID": "CDISCPILOT01",
    "USUBJID": "01-704-1351",
    "SUBJID": "1351",
    "SITEID": "704",
    "AGE": 70,
    "AGEU": "YEARS",
    "SEX": "M",
    "RACE": "WHITE",
    "ETHNIC": "NOT HISPANIC OR LATINO",
    "ARM": "Placebo",
    "ARMCD": "Pbo",
    "ACTARM": "Placebo",
    "ACTARMCD": "Pbo",
    "RFSTDTC": "2013-10-12",
    "RFENDTC": "2014-04-18",
    "DTHDTC": "",
    "DTHFL": null,
    "COUNTRY": "USA",
    "TRT01P": "Placebo",
    "TRT01A": "Placebo",
    "TRT01PN": 0,
    "TRT01AN": 0,
    "AGEGR1": "65-80",
    "AGEGR1N": 2,
    "RACEN": 1,
    "TRTSDT": "2013-10-12",
    "TRTEDT": "2014-04-18",
    "TRTDUR": 189,
    "EOSSTT": "COMPLETED",
    "DCSREAS": null,
    "DISDT": "2014-04-18",
    "COMP16FL": "Y",
    "COMP24FL": "Y",
    "COMP8FL": "Y",
    "EFFFL": "Y",
    "ITTFL": "Y",
    "SAFFL": "Y",
    "EDUCLVL": 12,
    "MMSETOT": null,
    "DISONSDT": "2012-09-10",
    "DURDIS": 12.5175,
    "DURDSGR1": ">=12",
    "WEIGHTBL": 73.48,
    "HEIGHTBL": null,
    "BMIBL": null,
    "BMIBLGR1": null,
    "DTHDT": null,
    "SITEGR1": "704"
  },
  {
    "STUDYID": "CDISCPILOT01",
    "USUBJID": "01-704-1388",
    "SUBJID": "1388",
    "SITEID": "704",
    "AGE": 81,
    "AGEU": "YEARS",
    "SEX": "M",
    "RACE": "WHITE",
    "ETHNIC": "NOT HISPANIC OR LATINO",
    "ARM": "Placebo",
    "ARMCD": "Pbo",
    "ACTARM": "Placebo",
    "ACTARMCD": "Pbo",
    "RFSTDTC": "2012-12-07",
    "RFENDTC": "2013-06-19",
    "DTHDTC": "",
    "DTHFL": null,
    "COUNTRY": "USA",
    "TRT01P": "Placebo",
    "TRT01A": "Placebo",
    "TRT01PN": 0,
    "TRT01AN": 0,
    "AGEGR1": ">80",
    "AGEGR1N": 3,
    "RACEN": 1,
    "TRTSDT": "2012-12-07",
    "TRTEDT": "2013-06-11",
    "TRTDUR": 187,
    "EOSSTT": "COMPLETED",
    "DCSREAS": null,
    "DISDT": "2013-06-19",
    "COMP16FL": "Y",
    "COMP24FL": "Y",
    "COMP8FL": "Y",
    "EFFFL": "Y",
    "ITTFL": "Y",
    "SAFFL": "Y",
    "EDUCLVL": 11,
    "MMSETOT": null,
    "DISONSDT": "2010-10-26",
    "DURDIS": 25.1006,
    "DURDSGR1": ">=12",
    "WEIGHTBL": 58.51,
    "HEIGHTBL": null,
    "BMIBL": null,
    "BMIBLGR1": null,
    "DTHDT": null,
    "SITEGR1": "704"
  },
  {
    "STUDYID": "CDISCPILOT01",
    "USUBJID": "01-704-1435",
    "SUBJID": "1435",
    "SITEID": "704",
    "AGE": 74,
    "AGEU": "YEARS",
    "SEX": "M",
    "RACE": "WHITE",
    "ETHNIC": "NOT HISPANIC OR LATINO",
    "ARM": "Placebo",
    "ARMCD": "Pbo",
    "ACTARM": "Placebo",
    "ACTARMCD": "Pbo",
    "RFSTDTC": "2012-11-17",
    "RFENDTC": "2013-01-12",
    "DTHDTC": "",
    "DTHFL": null,
    "COUNTRY": "USA",
    "TRT01P": "Placebo",
    "TRT01A": "Placebo",
    "TRT01PN": 0,
    "TRT01AN": 0,
    "AGEGR1": "65-80",
    "AGEGR1N": 2,
    "RACEN": 1,
    "TRTSDT": "2012-11-17",
    "TRTEDT": "2013-01-09",
    "TRTDUR": 54,
    "EOSSTT": "DISCONTINUED",
    "DCSREAS": "WITHDRAWAL BY SUBJECT",
    "DISDT": "2013-01-12",
    "COMP16FL": "N",
    "COMP24FL": "N",
    "COMP8FL": "Y",
    "EFFFL": "Y",
    "ITTFL": "Y",
    "SAFFL": "Y",
    "EDUCLVL": 16,
    "MMSETOT": null,
    "DISONSDT": "2010-01-20",
    "DURDIS": 33.3799,
    "DURDSGR1": ">=12",
    "WEIGHTBL": 76.2,
    "HEIGHTBL": null,
    "BMIBL": null,
    "BMIBLGR1": null,
    "DTHDT": null,
    "SITEGR1": "704"
  },
  {
    "STUDYID": "CDISCPILOT01",
    "USUBJID": "01-704-1445",
    "SUBJID": "1445",
    "SITEID": "704",
    "AGE": 75,
    "AGEU": "YEARS",
    "SEX": "M",
    "RACE": "WHITE",
    "ETHNIC": "NOT HISPANIC OR LATINO",
    "ARM": "Placebo",
    "ARMCD": "Pbo",
    "ACTARM": "Placebo",
    "ACTARMCD": "Pbo",
    "RFSTDTC": "2014-05-11",
    "RFENDTC": "2014-11-01",
    "DTHDTC": "2014-11-01",
    "DTHFL": "Y",
    "COUNTRY": "USA",
    "TRT01P": "Placebo",
    "TRT01A": "Placebo",
    "TRT01PN": 0,
    "TRT01AN": 0,
    "AGEGR1": "65-80",
    "AGEGR1N": 2,
    "RACEN": 1,
    "TRTSDT": "2014-05-11",
    "TRTEDT": "2014-11-01",
    "TRTDUR": 175,
    "EOSSTT": "DISCONTINUED",
    "DCSREAS": "DEATH",
    "DISDT": "2014-11-01",
    "COMP16FL": "Y",
    "COMP24FL": "Y",
    "COMP8FL": "Y",
    "EFFFL": "Y",
    "ITTFL": "Y",
    "SAFFL": "Y",
    "EDUCLVL": 12,
    "MMSETOT": null,
    "DISONSDT": "2012-11-11",
    "DURDIS": 17.6099,
    "DURDSGR1": ">=12",
    "WEIGHTBL": 72.12,
    "HEIGHTBL": null,
    "BMIBL": null,
    "BMIBLGR1": null,
    "DTHDT": "2014-11-01",
    "SITEGR1": "704"
  },
  {
    "STUDYID": "CDISCPILOT01",
    "USUBJID": "01-705-1011",
    "SUBJID": "1011",
    "SITEID": "705",
    "AGE": 75,
    "AGEU": "YEARS",
    "SEX": "F",
    "RACE": "WHITE",
    "ETHNIC": "NOT HISPANIC OR LATINO",
    "ARM": "Screen Failure",
    "ARMCD": "Scrnfail",
    "ACTARM": "Screen Failure",
    "ACTARMCD": "Scrnfail",
    "RFSTDTC": "",
    "RFENDTC": "",
    "DTHDTC": "",
    "DTHFL": null,
    "COUNTRY": "USA",
    "TRT01P": "Screen Failure",
    "TRT01A": "Screen Failure",
    "TRT01PN": null,
    "TRT01AN": null,
    "AGEGR1": "65-80",
    "AGEGR1N": 2,
    "RACEN": 1,
    "TRTSDT": null,
    "TRTEDT": null,
    "TRTDUR": null,
    "EOSSTT": "DISCONTINUED",
    "DCSREAS": "SCREEN FAILURE",
    "DISDT": "2013-09-01",
    "COMP16FL": "N",
    "COMP24FL": "N",
    "COMP8FL": "N",
    "EFFFL": "N",
    "ITTFL": "N",
    "SAFFL": "N",
    "EDUCLVL": null,
    "MMSETOT": null,
    "DISONSDT": null,
    "DURDIS": null,
    "DURDSGR1": ">=12",
    "WEIGHTBL": null,
    "HEIGHTBL": null,
    "BMIBL": null,
    "BMIBLGR1": null,
    "DTHDT": null,
    "SITEGR1": "705"
  },
  {
    "STUDYID": "CDISCPILOT01",
    "USUBJID": "01-705-1018",
    "SUBJID": "1018",
    "SITEID": "705",
    "AGE": 69,
    "AGEU": "YEARS",
    "SEX": "F",
    "RACE": "WHITE",
    "ETHNIC": "NOT HISPANIC OR LATINO",
    "ARM": "Placebo",
    "ARMCD": "Pbo",
    "ACTARM": "Placebo",
    "ACTARMCD": "Pbo",
    "RFSTDTC": "2013-07-05",
    "RFENDTC": "2013-07-12",
    "DTHDTC": "",
    "DTHFL": null,
    "COUNTRY": "USA",
    "TRT01P": "Placebo",
    "TRT01A": "Placebo",
    "TRT01PN": 0,
    "TRT01AN": 0,
    "AGEGR1": "65-80",
    "AGEGR1N": 2,
    "RACEN": 1,
    "TRTSDT": "2013-07-05",
    "TRTEDT": null,
    "TRTDUR": null,
    "EOSSTT": "DISCONTINUED",
    "DCSREAS": "WITHDRAWAL BY SUBJECT",
    "DISDT": "2013-07-12",
    "COMP16FL": "N",
    "COMP24FL": "N",
    "COMP8FL": "N",
    "EFFFL": "N",
    "ITTFL": "Y",
    "SAFFL": "Y",
    "EDUCLVL": 6,
    "MMSETOT": null,
    "DISONSDT": "2009-11-21",
    "DURDIS": 43.269,
    "DURDSGR1": ">=12",
    "WEIGHTBL": 48.99,
    "HEIGHTBL": null,
    "BMIBL": null,
    "BMIBLGR1": null,
    "DTHDT": null,
    "SITEGR1": "705"
  },
  {
    "STUDYID": "CDISCPILOT01",
    "USUBJID": "01-705-1031",
    "SUBJID": "1031",
    "SITEID": "705",
    "AGE": 56,
    "AGEU": "YEARS",
    "SEX": "F",
    "RACE": "WHITE",
    "ETHNIC": "HISPANIC OR LATINO",
    "ARM": "Xanomeline Low Dose",
    "ARMCD": "Xan_Lo",
    "ACTARM": "Xanomeline Low Dose",
    "ACTARMCD": "Xan_Lo",
    "RFSTDTC": "2013-11-27",
    "RFENDTC": "2014-05-11",
    "DTHDTC": "",
    "DTHFL": null,
    "COUNTRY": "USA",
    "TRT01P": "Xanomeline Low Dose",
    "TRT01A": "Xanomeline Low Dose",
    "TRT01PN": 1,
    "TRT01AN": 1,
    "AGEGR1": "<65",
    "AGEGR1N": 1,
    "RACEN": 1,
    "TRTSDT": "2013-11-27",
    "TRTEDT": "2013-12-18",
    "TRTDUR": 22,
    "EOSSTT": "DISCONTINUED",
    "DCSREAS": "LOST TO FOLLOW-UP",
    "DISDT": "2014-05-11",
    "COMP16FL": "Y",
    "COMP24FL": "Y",
    "COMP8FL": "Y",
    "EFFFL": "Y",
    "ITTFL": "Y",
    "SAFFL": "Y",
    "EDUCLVL": 16,
    "MMSETOT": null,
    "DISONSDT": "2010-11-25",
    "DURDIS": 35.7454,
    "DURDSGR1": ">=12",
    "WEIGHTBL": 71.67,
    "HEIGHTBL": null,
    "BMIBL": null,
    "BMIBLGR1": null,
    "DTHDT": null,
    "SITEGR1": "705"
  },
  {
    "STUDYID": "CDISCPILOT01",
    "USUBJID": "01-705-1058",
    "SUBJID": "1058",
    "SITEID": "705",
    "AGE": 89,
    "AGEU": "YEARS",
    "SEX": "M",
    "RACE": "WHITE",
    "ETHNIC": "NOT HISPANIC OR LATINO",
    "ARM": "Screen Failure",
    "ARMCD": "Scrnfail",
    "ACTARM": "Screen Failure",
    "ACTARMCD": "Scrnfail",
    "RFSTDTC": "",
    "RFENDTC": "",
    "DTHDTC": "",
    "DTHFL": null,
    "COUNTRY": "USA",
    "TRT01P": "Screen Failure",
    "TRT01A": "Screen Failure",
    "TRT01PN": null,
    "TRT01AN": null,
    "AGEGR1": ">80",
    "AGEGR1N": 3,
    "RACEN": 1,
    "TRTSDT": null,
    "TRTEDT": null,
    "TRTDUR": null,
    "EOSSTT": "DISCONTINUED",
    "DCSREAS": "SCREEN FAILURE",
    "DISDT": "2013-12-02",
    "COMP16FL": "N",
    "COMP24FL": "N",
    "COMP8FL": "N",
    "EFFFL": "N",
    "ITTFL": "N",
    "SAFFL": "N",
    "EDUCLVL": null,
    "MMSETOT": null,
    "DISONSDT": null,
    "DURDIS": null,
    "DURDSGR1": ">=12",
    "WEIGHTBL": null,
    "HEIGHTBL": null,
    "BMIBL": null,
    "BMIBLGR1": null,
    "DTHDT": null,
    "SITEGR1": "705"
  },
  {
    "STUDYID": "CDISCPILOT01",
    "USUBJID": "01-705-1059",
    "SUBJID": "1059",
    "SITEID": "705",
    "AGE": 66,
    "AGEU": "YEARS",
    "SEX": "F",
    "RACE": "WHITE",
    "ETHNIC": "NOT HISPANIC OR LATINO",
    "ARM": "Placebo",
    "ARMCD": "Pbo",
    "ACTARM": "Placebo",
    "ACTARMCD": "Pbo",
    "RFSTDTC": "2013-08-05",
    "RFENDTC": "2013-12-05",
    "DTHDTC": "",
    "DTHFL": null,
    "COUNTRY": "USA",
    "TRT01P": "Placebo",
    "TRT01A": "Placebo",
    "TRT01PN": 0,
    "TRT01AN": 0,
    "AGEGR1": "65-80",
    "AGEGR1N": 2,
    "RACEN": 1,
    "TRTSDT": "2013-08-05",
    "TRTEDT": "2013-12-05",
    "TRTDUR": 123,
    "EOSSTT": "DISCONTINUED",
    "DCSREAS": "ADVERSE EVENT",
    "DISDT": "2013-12-05",
    "COMP16FL": "Y",
    "COMP24FL": "N",
    "COMP8FL": "Y",
    "EFFFL": "Y",
    "ITTFL": "Y",
    "SAFFL": "Y",
    "EDUCLVL": 12,
    "MMSETOT": null,
    "DISONSDT": "2009-07-20",
    "DURDIS": 48.4271,
    "DURDSGR1": ">=12",
    "WEIGHTBL": 53.98,
    "HEIGHTBL": null,
    "BMIBL": null,
    "BMIBLGR1": null,
    "DTHDT": null,
    "SITEGR1": "705"
  },
  {
    "STUDYID": "CDISCPILOT01",
    "USUBJID": "01-705-1112",
    "SUBJID": "1112",
    "SITEID": "705",
    "AGE": 78,
    "AGEU": "YEARS",
    "SEX": "M",
    "RACE": "WHITE",
    "ETHNIC": "NOT HISPANIC OR LATINO",
    "ARM": "Screen Failure",
    "ARMCD": "Scrnfail",
    "ACTARM": "Screen Failure",
    "ACTARMCD": "Scrnfail",
    "RFSTDTC": "",
    "RFENDTC": "",
    "DTHDTC": "",
    "DTHFL": null,
    "COUNTRY": "USA",
    "TRT01P": "Screen Failure",
    "TRT01A": "Screen Failure",
    "TRT01PN": null,
    "TRT01AN": null,
    "AGEGR1": "65-80",
    "AGEGR1N": 2,
    "RACEN": 1,
    "TRTSDT": null,
    "TRTEDT": null,
    "TRTDUR": null,
    "EOSSTT": "DISCONTINUED",
    "DCSREAS": "SCREEN FAILURE",
    "DISDT": "2014-02-23",
    "COMP16FL": "N",
    "COMP24FL": "N",
    "COMP8FL": "N",
    "EFFFL": "N",
    "ITTFL": "N",
    "SAFFL": "N",
    "EDUCLVL": null,
    "MMSETOT": null,
    "DISONSDT": null,
    "DURDIS": null,
    "DURDSGR1": ">=12",
    "WEIGHTBL": null,
    "HEIGHTBL": null,
    "BMIBL": null,
    "BMIBLGR1": null,
    "DTHDT": null,
    "SITEGR1": "705"
  },
  {
    "STUDYID": "CDISCPILOT01",
    "USUBJID": "01-705-1186",
    "SUBJID": "1186",
    "SITEID": "705",
    "AGE": 84,
    "AGEU": "YEARS",
    "SEX": "F",
    "RACE": "WHITE",
    "ETHNIC": "NOT HISPANIC OR LATINO",
    "ARM": "Placebo",
    "ARMCD": "Pbo",
    "ACTARM": "Placebo",
    "ACTARMCD": "Pbo",
    "RFSTDTC": "2014-01-08",
    "RFENDTC": "2014-02-07",
    "DTHDTC": "",
    "DTHFL": null,
    "COUNTRY": "USA",
    "TRT01P": "Placebo",
    "TRT01A": "Placebo",
    "TRT01PN": 0,
    "TRT01AN": 0,
    "AGEGR1": ">80",
    "AGEGR1N": 3,
    "RACEN": 1,
    "TRTSDT": "2014-01-08",
    "TRTEDT": "2014-01-26",
    "TRTDUR": 19,
    "EOSSTT": "DISCONTINUED",
    "DCSREAS": "PHYSICIAN DECISION",
    "DISDT": "2014-02-07",
    "COMP16FL": "N",
    "COMP24FL": "N",
    "COMP8FL": "N",
    "EFFFL": "N",
    "ITTFL": "Y",
    "SAFFL": "Y",
    "EDUCLVL": 12,
    "MMSETOT": null,
    "DISONSDT": "2011-07-03",
    "DURDIS": 30.0616,
    "DURDSGR1": ">=12",
    "WEIGHTBL": 39.92,
    "HEIGHTBL": null,
    "BMIBL": null,
    "BMIBLGR1": null,
    "DTHDT": null,
    "SITEGR1": "705"
  },
  {
    "STUDYID": "CDISCPILOT01",
    "USUBJID": "01-705-1199",
    "SUBJID": "1199",
    "SITEID": "705",
    "AGE": 87,
    "AGEU": "YEARS",
    "SEX": "M",
    "RACE": "WHITE",
    "ETHNIC": "NOT HISPANIC OR LATINO",
    "ARM": "Xanomeline Low Dose",
    "ARMCD": "Xan_Lo",
    "ACTARM": "Xanomeline Low Dose",
    "ACTARMCD": "Xan_Lo",
    "RFSTDTC": "2013-09-16",
    "RFENDTC": "2013-09-29",
    "DTHDTC": "",
    "DTHFL": null,
    "COUNTRY": "USA",
    "TRT01P": "Xanomeline Low Dose",
    "TRT01A": "Xanomeline Low Dose",
    "TRT01PN": 1,
    "TRT01AN": 1,
    "AGEGR1": ">80",
    "AGEGR1N": 3,
    "RACEN": 1,
    "TRTSDT": "2013-09-16",
    "TRTEDT": "2013-09-28",
    "TRTDUR": 13,
    "EOSSTT": "DISCONTINUED",
    "DCSREAS": "ADVERSE EVENT",
    "DISDT": "2013-09-29",
    "COMP16FL": "N",
    "COMP24FL": "N",
    "COMP8FL": "N",
    "EFFFL": "Y",
    "ITTFL": "Y",
    "SAFFL": "Y",
    "EDUCLVL": 20,
    "MMSETOT": null,
    "DISONSDT": "2007-09-08",
    "DURDIS": 72.115,
    "DURDSGR1": ">=12",
    "WEIGHTBL": 64.41,
    "HEIGHTBL": null,
    "BMIBL": null,
    "BMIBLGR1": null,
    "DTHDT": null,
    "SITEGR1": "705"
  },
  {
    "STUDYID": "CDISCPILOT01",
    "USUBJID": "01-705-1243",
    "SUBJID": "1243",
    "SITEID": "705",
    "AGE": 70,
    "AGEU": "YEARS",
    "SEX": "F",
    "RACE": "WHITE",
    "ETHNIC": "HISPANIC OR LATINO",
    "ARM": "Screen Failure",
    "ARMCD": "Scrnfail",
    "ACTARM": "Screen Failure",
    "ACTARMCD": "Scrnfail",
    "RFSTDTC": "",
    "RFENDTC": "",
    "DTHDTC": "",
    "DTHFL": null,
    "COUNTRY": "USA",
    "TRT01P": "Screen Failure",
    "TRT01A": "Screen Failure",
    "TRT01PN": null,
    "TRT01AN": null,
    "AGEGR1": "65-80",
    "AGEGR1N": 2,
    "RACEN": 1,
    "TRTSDT": null,
    "TRTEDT": null,
    "TRTDUR": null,
    "EOSSTT": "DISCONTINUED",
    "DCSREAS": "SCREEN FAILURE",
    "DISDT": "2013-02-26",
    "COMP16FL": "N",
    "COMP24FL": "N",
    "COMP8FL": "N",
    "EFFFL": "N",
    "ITTFL": "N",
    "SAFFL": "N",
    "EDUCLVL": null,
    "MMSETOT": null,
    "DISONSDT": null,
    "DURDIS": null,
    "DURDSGR1": ">=12",
    "WEIGHTBL": null,
    "HEIGHTBL": null,
    "BMIBL": null,
    "BMIBLGR1": null,
    "DTHDT": null,
    "SITEGR1": "705"
  },
  {
    "STUDYID": "CDISCPILOT01",
    "USUBJID": "01-705-1280",
    "SUBJID": "1280",
    "SITEID": "705",
    "AGE": 56,
    "AGEU": "YEARS",
    "SEX": "F",
    "RACE": "WHITE",
    "ETHNIC": "NOT HISPANIC OR LATINO",
    "ARM": "Xanomeline High Dose",
    "ARMCD": "Xan_Hi",
    "ACTARM": "Xanomeline High Dose",
    "ACTARMCD": "Xan_Hi",
    "RFSTDTC": "2014-01-17",
    "RFENDTC": "2014-07-25",
    "DTHDTC": "",
    "DTHFL": null,
    "COUNTRY": "USA",
    "TRT01P": "Xanomeline High Dose",
    "TRT01A": "Xanomeline High Dose",
    "TRT01PN": 2,
    "TRT01AN": 2,
    "AGEGR1": "<65",
    "AGEGR1N": 1,
    "RACEN": 1,
    "TRTSDT": "2014-01-17",
    "TRTEDT": "2014-07-25",
    "TRTDUR": 190,
    "EOSSTT": "COMPLETED",
    "DCSREAS": null,
    "DISDT": "2014-07-25",
    "COMP16FL": "Y",
    "COMP24FL": "Y",
    "COMP8FL": "Y",
    "EFFFL": "Y",
    "ITTFL": "Y",
    "SAFFL": "Y",
    "EDUCLVL": 12,
    "MMSETOT": null,
    "DISONSDT": "2013-01-04",
    "DURDIS": 12.2218,
    "DURDSGR1": ">=12",
    "WEIGHTBL": 69.4,
    "HEIGHTBL": null,
    "BMIBL": null,
    "BMIBLGR1": null,
    "DTHDT": null,
    "SITEGR1": "705"
  },
  {
    "STUDYID": "CDISCPILOT01",
    "USUBJID": "01-705-1281",
    "SUBJID": "1281",
    "SITEID": "705",
    "AGE": 73,
    "AGEU": "YEARS",
    "SEX": "F",
    "RACE": "BLACK OR AFRICAN AMERICAN",
    "ETHNIC": "NOT HISPANIC OR LATINO",
    "ARM": "Xanomeline High Dose",
    "ARMCD": "Xan_Hi",
    "ACTARM": "Xanomeline High Dose",
    "ACTARMCD": "Xan_Hi",
    "RFSTDTC": "2013-11-28",
    "RFENDTC": "2014-03-17",
    "DTHDTC": "",
    "DTHFL": null,
    "COUNTRY": "USA",
    "TRT01P": "Xanomeline High Dose",
    "TRT01A": "Xanomeline High Dose",
    "TRT01PN": 2,
    "TRT01AN": 2,
    "AGEGR1": "65-80",
    "AGEGR1N": 2,
    "RACEN": 2,
    "TRTSDT": "2013-11-28",
    "TRTEDT": "2014-02-27",
    "TRTDUR": 92,
    "EOSSTT": "DISCONTINUED",
    "DCSREAS": "ADVERSE EVENT",
    "DISDT": "2014-03-17",
    "COMP16FL": "Y",
    "COMP24FL": "N",
    "COMP8FL": "Y",
    "EFFFL": "Y",
    "ITTFL": "Y",
    "SAFFL": "Y",
    "EDUCLVL": 12,
    "MMSETOT": null,
    "DISONSDT": "2012-11-05",
    "DURDIS": 12.6817,
    "DURDSGR1": ">=12",
    "WEIGHTBL": 73.03,
    "HEIGHTBL": null,
    "BMIBL": null,
    "BMIBLGR1": null,
    "DTHDT": null,
    "SITEGR1": "705"
  },
  {
    "STUDYID": "CDISCPILOT01",
    "USUBJID": "01-705-1282",
    "SUBJID": "1282",
    "SITEID": "705",
    "AGE": 70,
    "AGEU": "YEARS",
    "SEX": "F",
    "RACE": "BLACK OR AFRICAN AMERICAN",
    "ETHNIC": "NOT HISPANIC OR LATINO",
    "ARM": "Placebo",
    "ARMCD": "Pbo",
    "ACTARM": "Placebo",
    "ACTARMCD": "Pbo",
    "RFSTDTC": "2012-12-26",
    "RFENDTC": "2013-06-24",
    "DTHDTC": "",
    "DTHFL": null,
    "COUNTRY": "USA",
    "TRT01P": "Placebo",
    "TRT01A": "Placebo",
    "TRT01PN": 0,
    "TRT01AN": 0,
    "AGEGR1": "65-80",
    "AGEGR1N": 2,
    "RACEN": 2,
    "TRTSDT": "2012-12-26",
    "TRTEDT": "2013-06-24",
    "TRTDUR": 181,
    "EOSSTT": "COMPLETED",
    "DCSREAS": null,
    "DISDT": "2013-06-24",
    "COMP16FL": "Y",
    "COMP24FL": "Y",
    "COMP8FL": "Y",
    "EFFFL": "Y",
    "ITTFL": "Y",
    "SAFFL": "Y",
    "EDUCLVL": 12,
    "MMSETOT": null,
    "DISONSDT": "2006-12-06",
    "DURDIS": 72.5749,
    "DURDSGR1": ">=12",
    "WEIGHTBL": 73.03,
    "HEIGHTBL": null,
    "BMIBL": null,
    "BMIBLGR1": null,
    "DTHDT": null,
    "SITEGR1": "705"
  },
  {
    "STUDYID": "CDISCPILOT01",
    "USUBJID": "01-705-1292",
    "SUBJID": "1292",
    "SITEID": "705",
    "AGE": 60,
    "AGEU": "YEARS",
    "SEX": "F",
    "RACE": "BLACK OR AFRICAN AMERICAN",
    "ETHNIC": "NOT HISPANIC OR LATINO",
    "ARM": "Xanomeline Low Dose",
    "ARMCD": "Xan_Lo",
    "ACTARM": "Xanomeline Low Dose",
    "ACTARMCD": "Xan_Lo",
    "RFSTDTC": "2013-10-14",
    "RFENDTC": "2014-05-14",
    "DTHDTC": "",
    "DTHFL": null,
    "COUNTRY": "USA",
    "TRT01P": "Xanomeline Low Dose",
    "TRT01A": "Xanomeline Low Dose",
    "TRT01PN": 1,
    "TRT01AN": 1,
    "AGEGR1": "<65",
    "AGEGR1N": 1,
    "RACEN": 2,
    "TRTSDT": "2013-10-14",
    "TRTEDT": "2014-05-13",
    "TRTDUR": 212,
    "EOSSTT": "COMPLETED",
    "DCSREAS": null,
    "DISDT": "2014-05-14",
    "COMP16FL": "Y",
    "COMP24FL": "Y",
    "COMP8FL": "Y",
    "EFFFL": "Y",
    "ITTFL": "Y",
    "SAFFL": "Y",
    "EDUCLVL": 8,
    "MMSETOT": null,
    "DISONSDT": "2012-09-28",
    "DURDIS": 12.4189,
    "DURDSGR1": ">=12",
    "WEIGHTBL": 75.3,
    "HEIGHTBL": null,
    "BMIBL": null,
    "BMIBLGR1": null,
    "DTHDT": null,
    "SITEGR1": "705"
  },
  {
    "STUDYID": "CDISCPILOT01",
    "USUBJID": "01-705-1303",
    "SUBJID": "1303",
    "SITEID": "705",
    "AGE": 72,
    "AGEU": "YEARS",
    "SEX": "M",
    "RACE": "WHITE",
    "ETHNIC": "NOT HISPANIC OR LATINO",
    "ARM": "Xanomeline High Dose",
    "ARMCD": "Xan_Hi",
    "ACTARM": "Xanomeline High Dose",
    "ACTARMCD": "Xan_Hi",
    "RFSTDTC": "2013-12-16",
    "RFENDTC": "2014-06-02",
    "DTHDTC": "",
    "DTHFL": null,
    "COUNTRY": "USA",
    "TRT01P": "Xanomeline High Dose",
    "TRT01A": "Xanomeline High Dose",
    "TRT01PN": 2,
    "TRT01AN": 2,
    "AGEGR1": "65-80",
    "AGEGR1N": 2,
    "RACEN": 1,
    "TRTSDT": "2013-12-16",
    "TRTEDT": "2013-12-30",
    "TRTDUR": 15,
    "EOSSTT": "DISCONTINUED",
    "DCSREAS": "ADVERSE EVENT",
    "DISDT": "2014-06-02",
    "COMP16FL": "Y",
    "COMP24FL": "N",
    "COMP8FL": "Y",
    "EFFFL": "Y",
    "ITTFL": "Y",
    "SAFFL": "Y",
    "EDUCLVL": 12,
    "MMSETOT": null,
    "DISONSDT": "2010-12-15",
    "DURDIS": 35.8439,
    "DURDSGR1": ">=12",
    "WEIGHTBL": 84.37,
    "HEIGHTBL": null,
    "BMIBL": null,
    "BMIBLGR1": null,
    "DTHDT": null,
    "SITEGR1": "705"
  },
  {
    "STUDYID": "CDISCPILOT01",
    "USUBJID": "01-705-1310",
    "SUBJID": "1310",
    "SITEID": "705",
    "AGE": 74,
    "AGEU": "YEARS",
    "SEX": "F",
    "RACE": "WHITE",
    "ETHNIC": "NOT HISPANIC OR LATINO",
    "ARM": "Xanomeline High Dose",
    "ARMCD": "Xan_Hi",
    "ACTARM": "Xanomeline High Dose",
    "ACTARMCD": "Xan_Hi",
    "RFSTDTC": "2013-11-02",
    "RFENDTC": "2014-01-23",
    "DTHDTC": "",
    "DTHFL": null,
    "COUNTRY": "USA",
    "TRT01P": "Xanomeline High Dose",
    "TRT01A": "Xanomeline High Dose",
    "TRT01PN": 2,
    "TRT01AN": 2,
    "AGEGR1": "65-80",
    "AGEGR1N": 2,
    "RACEN": 1,
    "TRTSDT": "2013-11-02",
    "TRTEDT": "2014-01-23",
    "TRTDUR": 83,
    "EOSSTT": "DISCONTINUED",
    "DCSREAS": "ADVERSE EVENT",
    "DISDT": "2014-01-23",
    "COMP16FL": "N",
    "COMP24FL": "N",
    "COMP8FL": "Y",
    "EFFFL": "Y",
    "ITTFL": "Y",
    "SAFFL": "Y",
    "EDUCLVL": 12,
    "MMSETOT": null,
    "DISONSDT": "2011-10-30",
    "DURDIS": 23.885,
    "DURDSGR1": ">=12",
    "WEIGHTBL": 48.54,
    "HEIGHTBL": null,
    "BMIBL": null,
    "BMIBLGR1": null,
    "DTHDT": null,
    "SITEGR1": "705"
  },
  {
    "STUDYID": "CDISCPILOT01",
    "USUBJID": "01-705-1349",
    "SUBJID": "1349",
    "SITEID": "705",
    "AGE": 86,
    "AGEU": "YEARS",
    "SEX": "F",
    "RACE": "WHITE",
    "ETHNIC": "HISPANIC OR LATINO",
    "ARM": "Placebo",
    "ARMCD": "Pbo",
    "ACTARM": "Placebo",
    "ACTARMCD": "Pbo",
    "RFSTDTC": "2013-03-10",
    "RFENDTC": "2013-09-08",
    "DTHDTC": "",
    "DTHFL": null,
    "COUNTRY": "USA",
    "TRT01P": "Placebo",
    "TRT01A": "Placebo",
    "TRT01PN": 0,
    "TRT01AN": 0,
    "AGEGR1": ">80",
    "AGEGR1N": 3,
    "RACEN": 1,
    "TRTSDT": "2013-03-10",
    "TRTEDT": "2013-09-08",
    "TRTDUR": 183,
    "EOSSTT": "COMPLETED",
    "DCSREAS": null,
    "DISDT": "2013-09-08",
    "COMP16FL": "Y",
    "COMP24FL": "Y",
    "COMP8FL": "Y",
    "EFFFL": "Y",
    "ITTFL": "Y",
    "SAFFL": "Y",
    "EDUCLVL": 10,
    "MMSETOT": null,
    "DISONSDT": "2007-03-23",
    "DURDIS": 71.1294,
    "DURDSGR1": ">=12",
    "WEIGHTBL": 44.45,
    "HEIGHTBL": null,
    "BMIBL": null,
    "BMIBLGR1": null,
    "DTHDT": null,
    "SITEGR1": "705"
  },
  {
    "STUDYID": "CDISCPILOT01",
    "USUBJID": "01-705-1377",
    "SUBJID": "1377",
    "SITEID": "705",
    "AGE": 63,
    "AGEU": "YEARS",
    "SEX": "F",
    "RACE": "BLACK OR AFRICAN AMERICAN",
    "ETHNIC": "NOT HISPANIC OR LATINO",
    "ARM": "Xanomeline High Dose",
    "ARMCD": "Xan_Hi",
    "ACTARM": "Xanomeline High Dose",
    "ACTARMCD": "Xan_Hi",
    "RFSTDTC": "2014-01-04",
    "RFENDTC": "2014-03-07",
    "DTHDTC": "",
    "DTHFL": null,
    "COUNTRY": "USA",
    "TRT01P": "Xanomeline High Dose",
    "TRT01A": "Xanomeline High Dose",
    "TRT01PN": 2,
    "TRT01AN": 2,
    "AGEGR1": "<65",
    "AGEGR1N": 1,
    "RACEN": 2,
    "TRTSDT": "2014-01-04",
    "TRTEDT": "2014-01-25",
    "TRTDUR": 22,
    "EOSSTT": "DISCONTINUED",
    "DCSREAS": "WITHDRAWAL BY SUBJECT",
    "DISDT": "2014-03-07",
    "COMP16FL": "N",
    "COMP24FL": "N",
    "COMP8FL": "N",
    "EFFFL": "N",
    "ITTFL": "Y",
    "SAFFL": "Y",
    "EDUCLVL": 6,
    "MMSETOT": null,
    "DISONSDT": "2012-01-05",
    "DURDIS": 23.7864,
    "DURDSGR1": ">=12",
    "WEIGHTBL": 57.15,
    "HEIGHTBL": null,
    "BMIBL": null,
    "BMIBLGR1": null,
    "DTHDT": null,
    "SITEGR1": "705"
  },
  {
    "STUDYID": "CDISCPILOT01",
    "USUBJID": "01-705-1382",
    "SUBJID": "1382",
    "SITEID": "705",
    "AGE": 82,
    "AGEU": "YEARS",
    "SEX": "M",
    "RACE": "WHITE",
    "ETHNIC": "NOT HISPANIC OR LATINO",
    "ARM": "Xanomeline High Dose",
    "ARMCD": "Xan_Hi",
    "ACTARM": "Xanomeline Low Dose",
    "ACTARMCD": "Xan_Lo",
    "RFSTDTC": "2013-05-13",
    "RFENDTC": "2013-05-13",
    "DTHDTC": "",
    "DTHFL": null,
    "COUNTRY": "USA",
    "TRT01P": "Xanomeline High Dose",
    "TRT01A": "Xanomeline Low Dose",
    "TRT01PN": 2,
    "TRT01AN": 1,
    "AGEGR1": ">80",
    "AGEGR1N": 3,
    "RACEN": 1,
    "TRTSDT": "2013-05-13",
    "TRTEDT": null,
    "TRTDUR": null,
    "EOSSTT": "DISCONTINUED",
    "DCSREAS": "PROTOCOL VIOLATION",
    "DISDT": "2013-05-13",
    "COMP16FL": "N",
    "COMP24FL": "N",
    "COMP8FL": "N",
    "EFFFL": "N",
    "ITTFL": "Y",
    "SAFFL": "Y",
    "EDUCLVL": 12,
    "MMSETOT": null,
    "DISONSDT": "2012-05-03",
    "DURDIS": 12.1889,
    "DURDSGR1": ">=12",
    "WEIGHTBL": 96.16,
    "HEIGHTBL": null,
    "BMIBL": null,
    "BMIBLGR1": null,
    "DTHDT": null,
    "SITEGR1": "705"
  },
  {
    "STUDYID": "CDISCPILOT01",
    "USUBJID": "01-705-1393",
    "SUBJID": "1393",
    "SITEID": "705",
    "AGE": 84,
    "AGEU": "YEARS",
    "SEX": "F",
    "RACE": "WHITE",
    "ETHNIC": "NOT HISPANIC OR LATINO",
    "ARM": "Xanomeline Low Dose",
    "ARMCD": "Xan_Lo",
    "ACTARM": "Xanomeline Low Dose",
    "ACTARMCD": "Xan_Lo",
    "RFSTDTC": "2012-09-07",
    "RFENDTC": "2013-02-20",
    "DTHDTC": "",
    "DTHFL": null,
    "COUNTRY": "USA",
    "TRT01P": "Xanomeline Low Dose",
    "TRT01A": "Xanomeline Low Dose",
    "TRT01PN": 1,
    "TRT01AN": 1,
    "AGEGR1": ">80",
    "AGEGR1N": 3,
    "RACEN": 1,
    "TRTSDT": "2012-09-07",
    "TRTEDT": "2013-02-01",
    "TRTDUR": 148,
    "EOSSTT": "DISCONTINUED",
    "DCSREAS": "ADVERSE EVENT",
    "DISDT": "2013-02-20",
    "COMP16FL": "Y",
    "COMP24FL": "N",
    "COMP8FL": "Y",
    "EFFFL": "Y",
    "ITTFL": "Y",
    "SAFFL": "Y",
    "EDUCLVL": 13,
    "MMSETOT": null,
    "DISONSDT": "2004-09-08",
    "DURDIS": 95.8029,
    "DURDSGR1": ">=12",
    "WEIGHTBL": 56.25,
    "HEIGHTBL": null,
    "BMIBL": null,
    "BMIBLGR1": null,
    "DTHDT": null,
    "SITEGR1": "705"
  },
  {
    "STUDYID": "CDISCPILOT01",
    "USUBJID": "01-705-1421",
    "SUBJID": "1421",
    "SITEID": "705",
    "AGE": 87,
    "AGEU": "YEARS",
    "SEX": "M",
    "RACE": "WHITE",
    "ETHNIC": "NOT HISPANIC OR LATINO",
    "ARM": "Screen Failure",
    "ARMCD": "Scrnfail",
    "ACTARM": "Screen Failure",
    "ACTARMCD": "Scrnfail",
    "RFSTDTC": "",
    "RFENDTC": "",
    "DTHDTC": "",
    "DTHFL": null,
    "COUNTRY": "USA",
    "TRT01P": "Screen Failure",
    "TRT01A": "Screen Failure",
    "TRT01PN": null,
    "TRT01AN": null,
    "AGEGR1": ">80",
    "AGEGR1N": 3,
    "RACEN": 1,
    "TRTSDT": null,
    "TRTEDT": null,
    "TRTDUR": null,
    "EOSSTT": "DISCONTINUED",
    "DCSREAS": "SCREEN FAILURE",
    "DISDT": "2013-01-14",
    "COMP16FL": "N",
    "COMP24FL": "N",
    "COMP8FL": "N",
    "EFFFL": "N",
    "ITTFL": "N",
    "SAFFL": "N",
    "EDUCLVL": null,
    "MMSETOT": null,
    "DISONSDT": null,
    "DURDIS": null,
    "DURDSGR1": ">=12",
    "WEIGHTBL": null,
    "HEIGHTBL": null,
    "BMIBL": null,
    "BMIBLGR1": null,
    "DTHDT": null,
    "SITEGR1": "705"
  },
  {
    "STUDYID": "CDISCPILOT01",
    "USUBJID": "01-705-1431",
    "SUBJID": "1431",
    "SITEID": "705",
    "AGE": 68,
    "AGEU": "YEARS",
    "SEX": "F",
    "RACE": "WHITE",
    "ETHNIC": "HISPANIC OR LATINO",
    "ARM": "Xanomeline Low Dose",
    "ARMCD": "Xan_Lo",
    "ACTARM": "Xanomeline Low Dose",
    "ACTARMCD": "Xan_Lo",
    "RFSTDTC": "2013-06-23",
    "RFENDTC": "2013-12-19",
    "DTHDTC": "",
    "DTHFL": null,
    "COUNTRY": "USA",
    "TRT01P": "Xanomeline Low Dose",
    "TRT01A": "Xanomeline Low Dose",
    "TRT01PN": 1,
    "TRT01AN": 1,
    "AGEGR1": "65-80",
    "AGEGR1N": 2,
    "RACEN": 1,
    "TRTSDT": "2013-06-23",
    "TRTEDT": "2013-12-19",
    "TRTDUR": 180,
    "EOSSTT": "COMPLETED",
    "DCSREAS": null,
    "DISDT": "2013-12-19",
    "COMP16FL": "Y",
    "COMP24FL": "Y",
    "COMP8FL": "Y",
    "EFFFL": "Y",
    "ITTFL": "Y",
    "SAFFL": "Y",
    "EDUCLVL": 12,
    "MMSETOT": null,
    "DISONSDT": "2010-07-04",
    "DURDIS": 35.4168,
    "DURDSGR1": ">=12",
    "WEIGHTBL": 54.43,
    "HEIGHTBL": null,
    "BMIBL": null,
    "BMIBLGR1": null,
    "DTHDT": null,
    "SITEGR1": "705"
  },
  {
    "STUDYID": "CDISCPILOT01",
    "USUBJID": "01-706-1041",
    "SUBJID": "1041",
    "SITEID": "706",
    "AGE": 64,
    "AGEU": "YEARS",
    "SEX": "F",
    "RACE": "BLACK OR AFRICAN AMERICAN",
    "ETHNIC": "NOT HISPANIC OR LATINO",
    "ARM": "Placebo",
    "ARMCD": "Pbo",
    "ACTARM": "Placebo",
    "ACTARMCD": "Pbo",
    "RFSTDTC": "2013-12-31",
    "RFENDTC": "2014-07-29",
    "DTHDTC": "",
    "DTHFL": null,
    "COUNTRY": "USA",
    "TRT01P": "Placebo",
    "TRT01A": "Placebo",
    "TRT01PN": 0,
    "TRT01AN": 0,
    "AGEGR1": "<65",
    "AGEGR1N": 1,
    "RACEN": 2,
    "TRTSDT": "2013-12-31",
    "TRTEDT": "2014-07-28",
    "TRTDUR": 210,
    "EOSSTT": "COMPLETED",
    "DCSREAS": null,
    "DISDT": "2014-07-29",
    "COMP16FL": "Y",
    "COMP24FL": "Y",
    "COMP8FL": "Y",
    "EFFFL": "Y",
    "ITTFL": "Y",
    "SAFFL": "Y",
    "EDUCLVL": 15,
    "MMSETOT": null,
    "DISONSDT": "2011-11-18",
    "DURDIS": 25.1006,
    "DURDSGR1": ">=12",
    "WEIGHTBL": 58.74,
    "HEIGHTBL": null,
    "BMIBL": null,
    "BMIBLGR1": null,
    "DTHDT": null,
    "SITEGR1": "706"
  },
  {
    "STUDYID": "CDISCPILOT01",
    "USUBJID": "01-706-1049",
    "SUBJID": "1049",
    "SITEID": "706",
    "AGE": 60,
    "AGEU": "YEARS",
    "SEX": "F",
    "RACE": "WHITE",
    "ETHNIC": "NOT HISPANIC OR LATINO",
    "ARM": "Xanomeline High Dose",
    "ARMCD": "Xan_Hi",
    "ACTARM": "Xanomeline High Dose",
    "ACTARMCD": "Xan_Hi",
    "RFSTDTC": "2013-05-14",
    "RFENDTC": "2013-06-25",
    "DTHDTC": "",
    "DTHFL": null,
    "COUNTRY": "USA",
    "TRT01P": "Xanomeline High Dose",
    "TRT01A": "Xanomeline High Dose",
    "TRT01PN": 2,
    "TRT01AN": 2,
    "AGEGR1": "<65",
    "AGEGR1N": 1,
    "RACEN": 1,
    "TRTSDT": "2013-05-14",
    "TRTEDT": "2013-06-18",
    "TRTDUR": 36,
    "EOSSTT": "DISCONTINUED",
    "DCSREAS": "ADVERSE EVENT",
    "DISDT": "2013-06-25",
    "COMP16FL": "N",
    "COMP24FL": "N",
    "COMP8FL": "N",
    "EFFFL": "Y",
    "ITTFL": "Y",
    "SAFFL": "Y",
    "EDUCLVL": 11,
    "MMSETOT": null,
    "DISONSDT": "2010-05-02",
    "DURDIS": 35.9425,
    "DURDSGR1": ">=12",
    "WEIGHTBL": 57.83,
    "HEIGHTBL": null,
    "BMIBL": null,
    "BMIBLGR1": null,
    "DTHDT": null,
    "SITEGR1": "706"
  },
  {
    "STUDYID": "CDISCPILOT01",
    "USUBJID": "01-706-1384",
    "SUBJID": "1384",
    "SITEID": "706",
    "AGE": 74,
    "AGEU": "YEARS",
    "SEX": "F",
    "RACE": "WHITE",
    "ETHNIC": "NOT HISPANIC OR LATINO",
    "ARM": "Xanomeline Low Dose",
    "ARMCD": "Xan_Lo",
    "ACTARM": "Xanomeline Low Dose",
    "ACTARMCD": "Xan_Lo",
    "RFSTDTC": "2012-09-15",
    "RFENDTC": "2012-09-29",
    "DTHDTC": "",
    "DTHFL": null,
    "COUNTRY": "USA",
    "TRT01P": "Xanomeline Low Dose",
    "TRT01A": "Xanomeline Low Dose",
    "TRT01PN": 1,
    "TRT01AN": 1,
    "AGEGR1": "65-80",
    "AGEGR1N": 2,
    "RACEN": 1,
    "TRTSDT": "2012-09-15",
    "TRTEDT": "2012-09-24",
    "TRTDUR": 10,
    "EOSSTT": "DISCONTINUED",
    "DCSREAS": "ADVERSE EVENT",
    "DISDT": "2012-09-29",
    "COMP16FL": "N",
    "COMP24FL": "N",
    "COMP8FL": "N",
    "EFFFL": "Y",
    "ITTFL": "Y",
    "SAFFL": "Y",
    "EDUCLVL": 8,
    "MMSETOT": null,
    "DISONSDT": "2008-05-04",
    "DURDIS": 51.7125,
    "DURDSGR1": ">=12",
    "WEIGHTBL": 75.98,
    "HEIGHTBL": null,
    "BMIBL": null,
    "BMIBLGR1": null,
    "DTHDT": null,
    "SITEGR1": "706"
  },
  {
    "STUDYID": "CDISCPILOT01",
    "USUBJID": "01-707-1037",
    "SUBJID": "1037",
    "SITEID": "707",
    "AGE": 72,
    "AGEU": "YEARS",
    "SEX": "F",
    "RACE": "WHITE",
    "ETHNIC": "NOT HISPANIC OR LATINO",
    "ARM": "Xanomeline Low Dose",
    "ARMCD": "Xan_Lo",
    "ACTARM": "Xanomeline Low Dose",
    "ACTARMCD": "Xan_Lo",
    "RFSTDTC": "2013-12-20",
    "RFENDTC": "2014-01-08",
    "DTHDTC": "",
    "DTHFL": null,
    "COUNTRY": "USA",
    "TRT01P": "Xanomeline Low Dose",
    "TRT01A": "Xanomeline Low Dose",
    "TRT01PN": 1,
    "TRT01AN": 1,
    "AGEGR1": "65-80",
    "AGEGR1N": 2,
    "RACEN": 1,
    "TRTSDT": "2013-12-20",
    "TRTEDT": "2013-12-24",
    "TRTDUR": 5,
    "EOSSTT": "DISCONTINUED",
    "DCSREAS": "WITHDRAWAL BY SUBJECT",
    "DISDT": "2014-01-08",
    "COMP16FL": "N",
    "COMP24FL": "N",
    "COMP8FL": "N",
    "EFFFL": "Y",
    "ITTFL": "Y",
    "SAFFL": "Y",
    "EDUCLVL": 14,
    "MMSETOT": null,
    "DISONSDT": "2009-01-02",
    "DURDIS": 59.3018,
    "DURDSGR1": ">=12",
    "WEIGHTBL": 55.34,
    "HEIGHTBL": null,
    "BMIBL": null,
    "BMIBLGR1": null,
    "DTHDT": null,
    "SITEGR1": "707"
  },
  {
    "STUDYID": "CDISCPILOT01",
    "USUBJID": "01-707-1206",
    "SUBJID": "1206",
    "SITEID": "707",
    "AGE": 65,
    "AGEU": "YEARS",
    "SEX": "M",
    "RACE": "WHITE",
    "ETHNIC": "NOT HISPANIC OR LATINO",
    "ARM": "Placebo",
    "ARMCD": "Pbo",
    "ACTARM": "Placebo",
    "ACTARMCD": "Pbo",
    "RFSTDTC": "2013-10-28",
    "RFENDTC": "2014-04-27",
    "DTHDTC": "",
    "DTHFL": null,
    "COUNTRY": "USA",
    "TRT01P": "Placebo",
    "TRT01A": "Placebo",
    "TRT01PN": 0,
    "TRT01AN": 0,
    "AGEGR1": "65-80",
    "AGEGR1N": 2,
    "RACEN": 1,
    "TRTSDT": "2013-10-28",
    "TRTEDT": "2014-04-26",
    "TRTDUR": 181,
    "EOSSTT": "COMPLETED",
    "DCSREAS": null,
    "DISDT": "2014-04-27",
    "COMP16FL": "Y",
    "COMP24FL": "Y",
    "COMP8FL": "Y",
    "EFFFL": "Y",
    "ITTFL": "Y",
    "SAFFL": "Y",
    "EDUCLVL": 7,
    "MMSETOT": null,
    "DISONSDT": "2012-08-23",
    "DURDIS": 13.8973,
    "DURDSGR1": ">=12",
    "WEIGHTBL": 74.39,
    "HEIGHTBL": null,
    "BMIBL": null,
    "BMIBLGR1": null,
    "DTHDT": null,
    "SITEGR1": "707"
  },
  {
    "STUDYID": "CDISCPILOT01",
    "USUBJID": "01-707-1276",
    "SUBJID": "1276",
    "SITEID": "707",
    "AGE": 72,
    "AGEU": "YEARS",
    "SEX": "F",
    "RACE": "WHITE",
    "ETHNIC": "NOT HISPANIC OR LATINO",
    "ARM": "Screen Failure",
    "ARMCD": "Scrnfail",
    "ACTARM": "Screen Failure",
    "ACTARMCD": "Scrnfail",
    "RFSTDTC": "",
    "RFENDTC": "",
    "DTHDTC": "",
    "DTHFL": null,
    "COUNTRY": "USA",
    "TRT01P": "Screen Failure",
    "TRT01A": "Screen Failure",
    "TRT01PN": null,
    "TRT01AN": null,
    "AGEGR1": "65-80",
    "AGEGR1N": 2,
    "RACEN": 1,
    "TRTSDT": null,
    "TRTEDT": null,
    "TRTDUR": null,
    "EOSSTT": "DISCONTINUED",
    "DCSREAS": "SCREEN FAILURE",
    "DISDT": "2012-10-12",
    "COMP16FL": "N",
    "COMP24FL": "N",
    "COMP8FL": "N",
    "EFFFL": "N",
    "ITTFL": "N",
    "SAFFL": "N",
    "EDUCLVL": null,
    "MMSETOT": null,
    "DISONSDT": null,
    "DURDIS": null,
    "DURDSGR1": ">=12",
    "WEIGHTBL": null,
    "HEIGHTBL": null,
    "BMIBL": null,
    "BMIBLGR1": null,
    "DTHDT": null,
    "SITEGR1": "707"
  },
  {
    "STUDYID": "CDISCPILOT01",
    "USUBJID": "01-707-1430",
    "SUBJID": "1430",
    "SITEID": "707",
    "AGE": 81,
    "AGEU": "YEARS",
    "SEX": "F",
    "RACE": "WHITE",
    "ETHNIC": "NOT HISPANIC OR LATINO",
    "ARM": "Screen Failure",
    "ARMCD": "Scrnfail",
    "ACTARM": "Screen Failure",
    "ACTARMCD": "Scrnfail",
    "RFSTDTC": "",
    "RFENDTC": "",
    "DTHDTC": "",
    "DTHFL": null,
    "COUNTRY": "USA",
    "TRT01P": "Screen Failure",
    "TRT01A": "Screen Failure",
    "TRT01PN": null,
    "TRT01AN": null,
    "AGEGR1": ">80",
    "AGEGR1N": 3,
    "RACEN": 1,
    "TRTSDT": null,
    "TRTEDT": null,
    "TRTDUR": null,
    "EOSSTT": "DISCONTINUED",
    "DCSREAS": "SCREEN FAILURE",
    "DISDT": "2014-02-14",
    "COMP16FL": "N",
    "COMP24FL": "N",
    "COMP8FL": "N",
    "EFFFL": "N",
    "ITTFL": "N",
    "SAFFL": "N",
    "EDUCLVL": null,
    "MMSETOT": null,
    "DISONSDT": null,
    "DURDIS": null,
    "DURDSGR1": ">=12",
    "WEIGHTBL": null,
    "HEIGHTBL": null,
    "BMIBL": null,
    "BMIBLGR1": null,
    "DTHDT": null,
    "SITEGR1": "707"
  },
  {
    "STUDYID": "CDISCPILOT01",
    "USUBJID": "01-707-1434",
    "SUBJID": "1434",
    "SITEID": "707",
    "AGE": 76,
    "AGEU": "YEARS",
    "SEX": "F",
    "RACE": "WHITE",
    "ETHNIC": "NOT HISPANIC OR LATINO",
    "ARM": "Screen Failure",
    "ARMCD": "Scrnfail",
    "ACTARM": "Screen Failure",
    "ACTARMCD": "Scrnfail",
    "RFSTDTC": "",
    "RFENDTC": "",
    "DTHDTC": "",
    "DTHFL": null,
    "COUNTRY": "USA",
    "TRT01P": "Screen Failure",
    "TRT01A": "Screen Failure",
    "TRT01PN": null,
    "TRT01AN": null,
    "AGEGR1": "65-80",
    "AGEGR1N": 2,
    "RACEN": 1,
    "TRTSDT": null,
    "TRTEDT": null,
    "TRTDUR": null,
    "EOSSTT": "DISCONTINUED",
    "DCSREAS": "SCREEN FAILURE",
    "DISDT": "2013-07-25",
    "COMP16FL": "N",
    "COMP24FL": "N",
    "COMP8FL": "N",
    "EFFFL": "N",
    "ITTFL": "N",
    "SAFFL": "N",
    "EDUCLVL": null,
    "MMSETOT": null,
    "DISONSDT": null,
    "DURDIS": null,
    "DURDSGR1": ">=12",
    "WEIGHTBL": null,
    "HEIGHTBL": null,
    "BMIBL": null,
    "BMIBLGR1": null,
    "DTHDT": null,
    "SITEGR1": "707"
  },
  {
    "STUDYID": "CDISCPILOT01",
    "USUBJID": "01-708-1013",
    "SUBJID": "1013",
    "SITEID": "708",
    "AGE": 80,
    "AGEU": "YEARS",
    "SEX": "M",
    "RACE": "WHITE",
    "ETHNIC": "NOT HISPANIC OR LATINO",
    "ARM": "Screen Failure",
    "ARMCD": "Scrnfail",
    "ACTARM": "Screen Failure",
    "ACTARMCD": "Scrnfail",
    "RFSTDTC": "",
    "RFENDTC": "",
    "DTHDTC": "",
    "DTHFL": null,
    "COUNTRY": "USA",
    "TRT01P": "Screen Failure",
    "TRT01A": "Screen Failure",
    "TRT01PN": null,
    "TRT01AN": null,
    "AGEGR1": "65-80",
    "AGEGR1N": 2,
    "RACEN": 1,
    "TRTSDT": null,
    "TRTEDT": null,
    "TRTDUR": null,
    "EOSSTT": "DISCONTINUED",
    "DCSREAS": "SCREEN FAILURE",
    "DISDT": "2012-10-13",
    "COMP16FL": "N",
    "COMP24FL": "N",
    "COMP8FL": "N",
    "EFFFL": "N",
    "ITTFL": "N",
    "SAFFL": "N",
    "EDUCLVL": null,
    "MMSETOT": null,
    "DISONSDT": null,
    "DURDIS": null,
    "DURDSGR1": ">=12",
    "WEIGHTBL": null,
    "HEIGHTBL": null,
    "BMIBL": null,
    "BMIBLGR1": null,
    "DTHDT": null,
    "SITEGR1": "708"
  },
  {
    "STUDYID": "CDISCPILOT01",
    "USUBJID": "01-708-1019",
    "SUBJID": "1019",
    "SITEID": "708",
    "AGE": 68,
    "AGEU": "YEARS",
    "SEX": "M",
    "RACE": "WHITE",
    "ETHNIC": "NOT HISPANIC OR LATINO",
    "ARM": "Xanomeline Low Dose",
    "ARMCD": "Xan_Lo",
    "ACTARM": "Xanomeline Low Dose",
    "ACTARMCD": "Xan_Lo",
    "RFSTDTC": "2013-12-20",
    "RFENDTC": "2014-01-23",
    "DTHDTC": "",
    "DTHFL": null,
    "COUNTRY": "USA",
    "TRT01P": "Xanomeline Low Dose",
    "TRT01A": "Xanomeline Low Dose",
    "TRT01PN": 1,
    "TRT01AN": 1,
    "AGEGR1": "65-80",
    "AGEGR1N": 2,
    "RACEN": 1,
    "TRTSDT": "2013-12-20",
    "TRTEDT": "2014-01-01",
    "TRTDUR": 13,
    "EOSSTT": "DISCONTINUED",
    "DCSREAS": "ADVERSE EVENT",
    "DISDT": "2014-01-23",
    "COMP16FL": "N",
    "COMP24FL": "N",
    "COMP8FL": "N",
    "EFFFL": "Y",
    "ITTFL": "Y",
    "SAFFL": "Y",
    "EDUCLVL": 18,
    "MMSETOT": null,
    "DISONSDT": "2006-12-19",
    "DURDIS": 83.7125,
    "DURDSGR1": ">=12",
    "WEIGHTBL": 74.39,
    "HEIGHTBL": null,
    "BMIBL": null,
    "BMIBLGR1": null,
    "DTHDT": null,
    "SITEGR1": "708"
  },
  {
    "STUDYID": "CDISCPILOT01",
    "USUBJID": "01-708-1032",
    "SUBJID": "1032",
    "SITEID": "708",
    "AGE": 62,
    "AGEU": "YEARS",
    "SEX": "M",
    "RACE": "WHITE",
    "ETHNIC": "NOT HISPANIC OR LATINO",
    "ARM": "Xanomeline Low Dose",
    "ARMCD": "Xan_Lo",
    "ACTARM": "Xanomeline Low Dose",
    "ACTARMCD": "Xan_Lo",
    "RFSTDTC": "2013-02-09",
    "RFENDTC": "2013-03-09",
    "DTHDTC": "",
    "DTHFL": null,
    "COUNTRY": "USA",
    "TRT01P": "Xanomeline Low Dose",
    "TRT01A": "Xanomeline Low Dose",
    "TRT01PN": 1,
    "TRT01AN": 1,
    "AGEGR1": "<65",
    "AGEGR1N": 1,
    "RACEN": 1,
    "TRTSDT": "2013-02-09",
    "TRTEDT": "2013-03-01",
    "TRTDUR": 21,
    "EOSSTT": "DISCONTINUED",
    "DCSREAS": "ADVERSE EVENT",
    "DISDT": "2013-03-09",
    "COMP16FL": "N",
    "COMP24FL": "N",
    "COMP8FL": "N",
    "EFFFL": "Y",
    "ITTFL": "Y",
    "SAFFL": "Y",
    "EDUCLVL": 12,
    "MMSETOT": null,
    "DISONSDT": "2002-07-16",
    "DURDIS": 126.6201,
    "DURDSGR1": ">=12",
    "WEIGHTBL": 82.56,
    "HEIGHTBL": null,
    "BMIBL": null,
    "BMIBLGR1": null,
    "DTHDT": null,
    "SITEGR1": "708"
  },
  {
    "STUDYID": "CDISCPILOT01",
    "USUBJID": "01-708-1054",
    "SUBJID": "1054",
    "SITEID": "708",
    "AGE": 73,
    "AGEU": "YEARS",
    "SEX": "F",
    "RACE": "BLACK OR AFRICAN AMERICAN",
    "ETHNIC": "NOT HISPANIC OR LATINO",
    "ARM": "Screen Failure",
    "ARMCD": "Scrnfail",
    "ACTARM": "Screen Failure",
    "ACTARMCD": "Scrnfail",
    "RFSTDTC": "",
    "RFENDTC": "",
    "DTHDTC": "",
    "DTHFL": null,
    "COUNTRY": "USA",
    "TRT01P": "Screen Failure",
    "TRT01A": "Screen Failure",
    "TRT01PN": null,
    "TRT01AN": null,
    "AGEGR1": "65-80",
    "AGEGR1N": 2,
    "RACEN": 2,
    "TRTSDT": null,
    "TRTEDT": null,
    "TRTDUR": null,
    "EOSSTT": "DISCONTINUED",
    "DCSREAS": "SCREEN FAILURE",
    "DISDT": "2014-02-14",
    "COMP16FL": "N",
    "COMP24FL": "N",
    "COMP8FL": "N",
    "EFFFL": "N",
    "ITTFL": "N",
    "SAFFL": "N",
    "EDUCLVL": null,
    "MMSETOT": null,
    "DISONSDT": null,
    "DURDIS": null,
    "DURDSGR1": ">=12",
    "WEIGHTBL": null,
    "HEIGHTBL": null,
    "BMIBL": null,
    "BMIBLGR1": null,
    "DTHDT": null,
    "SITEGR1": "708"
  },
  {
    "STUDYID": "CDISCPILOT01",
    "USUBJID": "01-708-1067",
    "SUBJID": "1067",
    "SITEID": "708",
    "AGE": 88,
    "AGEU": "YEARS",
    "SEX": "M",
    "RACE": "WHITE",
    "ETHNIC": "NOT HISPANIC OR LATINO",
    "ARM": "Screen Failure",
    "ARMCD": "Scrnfail",
    "ACTARM": "Screen Failure",
    "ACTARMCD": "Scrnfail",
    "RFSTDTC": "",
    "RFENDTC": "",
    "DTHDTC": "",
    "DTHFL": null,
    "COUNTRY": "USA",
    "TRT01P": "Screen Failure",
    "TRT01A": "Screen Failure",
    "TRT01PN": null,
    "TRT01AN": null,
    "AGEGR1": ">80",
    "AGEGR1N": 3,
    "RACEN": 1,
    "TRTSDT": null,
    "TRTEDT": null,
    "TRTDUR": null,
    "EOSSTT": "DISCONTINUED",
    "DCSREAS": "SCREEN FAILURE",
    "DISDT": "2013-02-07",
    "COMP16FL": "N",
    "COMP24FL": "N",
    "COMP8FL": "N",
    "EFFFL": "N",
    "ITTFL": "N",
    "SAFFL": "N",
    "EDUCLVL": null,
    "MMSETOT": null,
    "DISONSDT": null,
    "DURDIS": null,
    "DURDSGR1": ">=12",
    "WEIGHTBL": null,
    "HEIGHTBL": null,
    "BMIBL": null,
    "BMIBLGR1": null,
    "DTHDT": null,
    "SITEGR1": "708"
  },
  {
    "STUDYID": "CDISCPILOT01",
    "USUBJID": "01-708-1084",
    "SUBJID": "1084",
    "SITEID": "708",
    "AGE": 73,
    "AGEU": "YEARS",
    "SEX": "F",
    "RACE": "WHITE",
    "ETHNIC": "NOT HISPANIC OR LATINO",
    "ARM": "Xanomeline Low Dose",
    "ARMCD": "Xan_Lo",
    "ACTARM": "Xanomeline Low Dose",
    "ACTARMCD": "Xan_Lo",
    "RFSTDTC": "2013-05-09",
    "RFENDTC": "2013-11-11",
    "DTHDTC": "",
    "DTHFL": null,
    "COUNTRY": "USA",
    "TRT01P": "Xanomeline Low Dose",
    "TRT01A": "Xanomeline Low Dose",
    "TRT01PN": 1,
    "TRT01AN": 1,
    "AGEGR1": "65-80",
    "AGEGR1N": 2,
    "RACEN": 1,
    "TRTSDT": "2013-05-09",
    "TRTEDT": "2013-11-11",
    "TRTDUR": 187,
    "EOSSTT": "COMPLETED",
    "DCSREAS": null,
    "DISDT": "2013-11-11",
    "COMP16FL": "Y",
    "COMP24FL": "Y",
    "COMP8FL": "Y",
    "EFFFL": "Y",
    "ITTFL": "Y",
    "SAFFL": "Y",
    "EDUCLVL": 12,
    "MMSETOT": null,
    "DISONSDT": "2010-04-26",
    "DURDIS": 36.1725,
    "DURDSGR1": ">=12",
    "WEIGHTBL": 50.35,
    "HEIGHTBL": null,
    "BMIBL": null,
    "BMIBLGR1": null,
    "DTHDT": null,
    "SITEGR1": "708"
  },
  {
    "STUDYID": "CDISCPILOT01",
    "USUBJID": "01-708-1087",
    "SUBJID": "1087",
    "SITEID": "708",
    "AGE": 74,
    "AGEU": "YEARS",
    "SEX": "F",
    "RACE": "WHITE",
    "ETHNIC": "NOT HISPANIC OR LATINO",
    "ARM": "Placebo",
    "ARMCD": "Pbo",
    "ACTARM": "Placebo",
    "ACTARMCD": "Pbo",
    "RFSTDTC": "2012-10-22",
    "RFENDTC": "2013-04-28",
    "DTHDTC": "",
    "DTHFL": null,
    "COUNTRY": "USA",
    "TRT01P": "Placebo",
    "TRT01A": "Placebo",
    "TRT01PN": 0,
    "TRT01AN": 0,
    "AGEGR1": "65-80",
    "AGEGR1N": 2,
    "RACEN": 1,
    "TRTSDT": "2012-10-22",
    "TRTEDT": "2013-04-28",
    "TRTDUR": 189,
    "EOSSTT": "COMPLETED",
    "DCSREAS": null,
    "DISDT": "2013-04-28",
    "COMP16FL": "Y",
    "COMP24FL": "Y",
    "COMP8FL": "Y",
    "EFFFL": "Y",
    "ITTFL": "Y",
    "SAFFL": "Y",
    "EDUCLVL": 12,
    "MMSETOT": null,
    "DISONSDT": "2008-09-02",
    "DURDIS": 49.117,
    "DURDSGR1": ">=12",
    "WEIGHTBL": 66.68,
    "HEIGHTBL": null,
    "BMIBL": null,
    "BMIBLGR1": null,
    "DTHDT": null,
    "SITEGR1": "708"
  },
  {
    "STUDYID": "CDISCPILOT01",
    "USUBJID": "01-708-1104",
    "SUBJID": "1104",
    "SITEID": "708",
    "AGE": 78,
    "AGEU": "YEARS",
    "SEX": "F",
    "RACE": "ASIAN",
    "ETHNIC": "NOT HISPANIC OR LATINO",
    "ARM": "Screen Failure",
    "ARMCD": "Scrnfail",
    "ACTARM": "Screen Failure",
    "ACTARMCD": "Scrnfail",
    "RFSTDTC": "",
    "RFENDTC": "",
    "DTHDTC": "",
    "DTHFL": null,
    "COUNTRY": "USA",
    "TRT01P": "Screen Failure",
    "TRT01A": "Screen Failure",
    "TRT01PN": null,
    "TRT01AN": null,
    "AGEGR1": "65-80",
    "AGEGR1N": 2,
    "RACEN": null,
    "TRTSDT": null,
    "TRTEDT": null,
    "TRTDUR": null,
    "EOSSTT": "DISCONTINUED",
    "DCSREAS": "SCREEN FAILURE",
    "DISDT": "2014-01-23",
    "COMP16FL": "N",
    "COMP24FL": "N",
    "COMP8FL": "N",
    "EFFFL": "N",
    "ITTFL": "N",
    "SAFFL": "N",
    "EDUCLVL": null,
    "MMSETOT": null,
    "DISONSDT": null,
    "DURDIS": null,
    "DURDSGR1": ">=12",
    "WEIGHTBL": null,
    "HEIGHTBL": null,
    "BMIBL": null,
    "BMIBLGR1": null,
    "DTHDT": null,
    "SITEGR1": "708"
  },
  {
    "STUDYID": "CDISCPILOT01",
    "USUBJID": "01-708-1158",
    "SUBJID": "1158",
    "SITEID": "708",
    "AGE": 81,
    "AGEU": "YEARS",
    "SEX": "F",
    "RACE": "WHITE",
    "ETHNIC": "NOT HISPANIC OR LATINO",
    "ARM": "Placebo",
    "ARMCD": "Pbo",
    "ACTARM": "Placebo",
    "ACTARMCD": "Pbo",
    "RFSTDTC": "2014-02-08",
    "RFENDTC": "2014-03-22",
    "DTHDTC": "",
    "DTHFL": null,
    "COUNTRY": "USA",
    "TRT01P": "Placebo",
    "TRT01A": "Placebo",
    "TRT01PN": 0,
    "TRT01AN": 0,
    "AGEGR1": ">80",
    "AGEGR1N": 3,
    "RACEN": 1,
    "TRTSDT": "2014-02-08",
    "TRTEDT": "2014-03-21",
    "TRTDUR": 42,
    "EOSSTT": "DISCONTINUED",
    "DCSREAS": "ADVERSE EVENT",
    "DISDT": "2014-03-22",
    "COMP16FL": "N",
    "COMP24FL": "N",
    "COMP8FL": "N",
    "EFFFL": "Y",
    "ITTFL": "Y",
    "SAFFL": "Y",
    "EDUCLVL": 8,
    "MMSETOT": null,
    "DISONSDT": "2010-08-01",
    "DURDIS": 42.0534,
    "DURDSGR1": ">=12",
    "WEIGHTBL": 73.48,
    "HEIGHTBL": null,
    "BMIBL": null,
    "BMIBLGR1": null,
    "DTHDT": null,
    "SITEGR1": "708"
  },
  {
    "STUDYID": "CDISCPILOT01",
    "USUBJID": "01-708-1171",
    "SUBJID": "1171",
    "SITEID": "708",
    "AGE": 77,
    "AGEU": "YEARS",
    "SEX": "F",
    "RACE": "WHITE",
    "ETHNIC": "NOT HISPANIC OR LATINO",
    "ARM": "Placebo",
    "ARMCD": "Pbo",
    "ACTARM": "Placebo",
    "ACTARMCD": "Pbo",
    "RFSTDTC": "2012-12-06",
    "RFENDTC": "2013-06-04",
    "DTHDTC": "",
    "DTHFL": null,
    "COUNTRY": "USA",
    "TRT01P": "Placebo",
    "TRT01A": "Placebo",
    "TRT01PN": 0,
    "TRT01AN": 0,
    "AGEGR1": "65-80",
    "AGEGR1N": 2,
    "RACEN": 1,
    "TRTSDT": "2012-12-06",
    "TRTEDT": "2013-06-04",
    "TRTDUR": 181,
    "EOSSTT": "COMPLETED",
    "DCSREAS": null,
    "DISDT": "2013-06-04",
    "COMP16FL": "Y",
    "COMP24FL": "Y",
    "COMP8FL": "Y",
    "EFFFL": "Y",
    "ITTFL": "Y",
    "SAFFL": "Y",
    "EDUCLVL": 9,
    "MMSETOT": null,
    "DISONSDT": "2010-09-24",
    "DURDIS": 26.0534,
    "DURDSGR1": ">=12",
    "WEIGHTBL": 54.89,
    "HEIGHTBL": null,
    "BMIBL": null,
    "BMIBLGR1": null,
    "DTHDT": null,
    "SITEGR1": "708"
  },
  {
    "STUDYID": "CDISCPILOT01",
    "USUBJID": "01-708-1178",
    "SUBJID": "1178",
    "SITEID": "708",
    "AGE": 77,
    "AGEU": "YEARS",
    "SEX": "F",
    "RACE": "BLACK OR AFRICAN AMERICAN",
    "ETHNIC": "NOT HISPANIC OR LATINO",
    "ARM": "Xanomeline High Dose",
    "ARMCD": "Xan_Hi",
    "ACTARM": "Xanomeline High Dose",
    "ACTARMCD": "Xan_Hi",
    "RFSTDTC": "2013-12-29",
    "RFENDTC": "2014-04-06",
    "DTHDTC": "",
    "DTHFL": null,
    "COUNTRY": "USA",
    "TRT01P": "Xanomeline High Dose",
    "TRT01A": "Xanomeline High Dose",
    "TRT01PN": 2,
    "TRT01AN": 2,
    "AGEGR1": "65-80",
    "AGEGR1N": 2,
    "RACEN": 2,
    "TRTSDT": "2013-12-29",
    "TRTEDT": "2014-04-06",
    "TRTDUR": 99,
    "EOSSTT": "DISCONTINUED",
    "DCSREAS": "PHYSICIAN DECISION",
    "DISDT": "2014-04-06",
    "COMP16FL": "N",
    "COMP24FL": "N",
    "COMP8FL": "Y",
    "EFFFL": "Y",
    "ITTFL": "Y",
    "SAFFL": "Y",
    "EDUCLVL": 8,
    "MMSETOT": null,
    "DISONSDT": "2008-08-10",
    "DURDIS": 64.0986,
    "DURDSGR1": ">=12",
    "WEIGHTBL": 62.82,
    "HEIGHTBL": null,
    "BMIBL": null,
    "BMIBLGR1": null,
    "DTHDT": null,
    "SITEGR1": "708"
  },
  {
    "STUDYID": "CDISCPILOT01",
    "USUBJID": "01-708-1184",
    "SUBJID": "1184",
    "SITEID": "708",
    "AGE": 70,
    "AGEU": "YEARS",
    "SEX": "F",
    "RACE": "WHITE",
    "ETHNIC": "NOT HISPANIC OR LATINO",
    "ARM": "Screen Failure",
    "ARMCD": "Scrnfail",
    "ACTARM": "Screen Failure",
    "ACTARMCD": "Scrnfail",
    "RFSTDTC": "",
    "RFENDTC": "",
    "DTHDTC": "",
    "DTHFL": null,
    "COUNTRY": "USA",
    "TRT01P": "Screen Failure",
    "TRT01A": "Screen Failure",
    "TRT01PN": null,
    "TRT01AN": null,
    "AGEGR1": "65-80",
    "AGEGR1N": 2,
    "RACEN": 1,
    "TRTSDT": null,
    "TRTEDT": null,
    "TRTDUR": null,
    "EOSSTT": "DISCONTINUED",
    "DCSREAS": "SCREEN FAILURE",
    "DISDT": "2013-01-14",
    "COMP16FL": "N",
    "COMP24FL": "N",
    "COMP8FL": "N",
    "EFFFL": "N",
    "ITTFL": "N",
    "SAFFL": "N",
    "EDUCLVL": null,
    "MMSETOT": null,
    "DISONSDT": null,
    "DURDIS": null,
    "DURDSGR1": ">=12",
    "WEIGHTBL": null,
    "HEIGHTBL": null,
    "BMIBL": null,
    "BMIBLGR1": null,
    "DTHDT": null,
    "SITEGR1": "708"
  },
  {
    "STUDYID": "CDISCPILOT01",
    "USUBJID": "01-708-1213",
    "SUBJID": "1213",
    "SITEID": "708",
    "AGE": 76,
    "AGEU": "YEARS",
    "SEX": "F",
    "RACE": "WHITE",
    "ETHNIC": "NOT HISPANIC OR LATINO",
    "ARM": "Xanomeline High Dose",
    "ARMCD": "Xan_Hi",
    "ACTARM": "Xanomeline Low Dose",
    "ACTARMCD": "Xan_Lo",
    "RFSTDTC": "2013-02-09",
    "RFENDTC": "2013-02-26",
    "DTHDTC": "",
    "DTHFL": null,
    "COUNTRY": "USA",
    "TRT01P": "Xanomeline High Dose",
    "TRT01A": "Xanomeline Low Dose",
    "TRT01PN": 2,
    "TRT01AN": 1,
    "AGEGR1": "65-80",
    "AGEGR1N": 2,
    "RACEN": 1,
    "TRTSDT": "2013-02-09",
    "TRTEDT": "2013-02-22",
    "TRTDUR": 14,
    "EOSSTT": "DISCONTINUED",
    "DCSREAS": "ADVERSE EVENT",
    "DISDT": "2013-02-26",
    "COMP16FL": "N",
    "COMP24FL": "N",
    "COMP8FL": "N",
    "EFFFL": "N",
    "ITTFL": "Y",
    "SAFFL": "Y",
    "EDUCLVL": 12,
    "MMSETOT": null,
    "DISONSDT": "2011-02-06",
    "DURDIS": 23.8522,
    "DURDSGR1": ">=12",
    "WEIGHTBL": 41.73,
    "HEIGHTBL": null,
    "BMIBL": null,
    "BMIBLGR1": null,
    "DTHDT": null,
    "SITEGR1": "708"
  },
  {
    "STUDYID": "CDISCPILOT01",
    "USUBJID": "01-708-1216",
    "SUBJID": "1216",
    "SITEID": "708",
    "AGE": 78,
    "AGEU": "YEARS",
    "SEX": "M",
    "RACE": "WHITE",
    "ETHNIC": "NOT HISPANIC OR LATINO",
    "ARM": "Xanomeline High Dose",
    "ARMCD": "Xan_Hi",
    "ACTARM": "Xanomeline High Dose",
    "ACTARMCD": "Xan_Hi",
    "RFSTDTC": "2012-10-24",
    "RFENDTC": "2012-12-06",
    "DTHDTC": "",
    "DTHFL": null,
    "COUNTRY": "USA",
    "TRT01P": "Xanomeline High Dose",
    "TRT01A": "Xanomeline High Dose",
    "TRT01PN": 2,
    "TRT01AN": 2,
    "AGEGR1": "65-80",
    "AGEGR1N": 2,
    "RACEN": 1,
    "TRTSDT": "2012-10-24",
    "TRTEDT": "2012-11-29",
    "TRTDUR": 37,
    "EOSSTT": "DISCONTINUED",
    "DCSREAS": "ADVERSE EVENT",
    "DISDT": "2012-12-06",
    "COMP16FL": "N",
    "COMP24FL": "N",
    "COMP8FL": "N",
    "EFFFL": "Y",
    "ITTFL": "Y",
    "SAFFL": "Y",
    "EDUCLVL": 12,
    "MMSETOT": null,
    "DISONSDT": "2001-07-15",
    "DURDIS": 134.9979,
    "DURDSGR1": ">=12",
    "WEIGHTBL": 77.11,
    "HEIGHTBL": null,
    "BMIBL": null,
    "BMIBLGR1": null,
    "DTHDT": null,
    "SITEGR1": "708"
  },
  {
    "STUDYID": "CDISCPILOT01",
    "USUBJID": "01-708-1236",
    "SUBJID": "1236",
    "SITEID": "708",
    "AGE": 86,
    "AGEU": "YEARS",
    "SEX": "F",
    "RACE": "WHITE",
    "ETHNIC": "NOT HISPANIC OR LATINO",
    "ARM": "Xanomeline High Dose",
    "ARMCD": "Xan_Hi",
    "ACTARM": "Xanomeline Low Dose",
    "ACTARMCD": "Xan_Lo",
    "RFSTDTC": "2013-09-21",
    "RFENDTC": "2013-09-26",
    "DTHDTC": "",
    "DTHFL": null,
    "COUNTRY": "USA",
    "TRT01P": "Xanomeline High Dose",
    "TRT01A": "Xanomeline Low Dose",
    "TRT01PN": 2,
    "TRT01AN": 1,
    "AGEGR1": ">80",
    "AGEGR1N": 3,
    "RACEN": 1,
    "TRTSDT": "2013-09-21",
    "TRTEDT": "2013-09-21",
    "TRTDUR": 1,
    "EOSSTT": "DISCONTINUED",
    "DCSREAS": "WITHDRAWAL BY SUBJECT",
    "DISDT": "2013-09-26",
    "COMP16FL": "N",
    "COMP24FL": "N",
    "COMP8FL": "N",
    "EFFFL": "N",
    "ITTFL": "Y",
    "SAFFL": "Y",
    "EDUCLVL": 8,
    "MMSETOT": null,
    "DISONSDT": "2012-09-08",
    "DURDIS": 11.9918,
    "DURDSGR1": "<12",
    "WEIGHTBL": 54.43,
    "HEIGHTBL": null,
    "BMIBL": null,
    "BMIBLGR1": null,
    "DTHDT": null,
    "SITEGR1": "708"
  },
  {
    "STUDYID": "CDISCPILOT01",
    "USUBJID": "01-708-1242",
    "SUBJID": "1242",
    "SITEID": "708",
    "AGE": 80,
    "AGEU": "YEARS",
    "SEX": "M",
    "RACE": "WHITE",
    "ETHNIC": "NOT HISPANIC OR LATINO",
    "ARM": "Screen Failure",
    "ARMCD": "Scrnfail",
    "ACTARM": "Screen Failure",
    "ACTARMCD": "Scrnfail",
    "RFSTDTC": "",
    "RFENDTC": "",
    "DTHDTC": "",
    "DTHFL": null,
    "COUNTRY": "USA",
    "TRT01P": "Screen Failure",
    "TRT01A": "Screen Failure",
    "TRT01PN": null,
    "TRT01AN": null,
    "AGEGR1": "65-80",
    "AGEGR1N": 2,
    "RACEN": 1,
    "TRTSDT": null,
    "TRTEDT": null,
    "TRTDUR": null,
    "EOSSTT": "DISCONTINUED",
    "DCSREAS": "SCREEN FAILURE",
    "DISDT": "2012-08-13",
    "COMP16FL": "N",
    "COMP24FL": "N",
    "COMP8FL": "N",
    "EFFFL": "N",
    "ITTFL": "N",
    "SAFFL": "N",
    "EDUCLVL": null,
    "MMSETOT": null,
    "DISONSDT": null,
    "DURDIS": null,
    "DURDSGR1": ">=12",
    "WEIGHTBL": null,
    "HEIGHTBL": null,
    "BMIBL": null,
    "BMIBLGR1": null,
    "DTHDT": null,
    "SITEGR1": "708"
  },
  {
    "STUDYID": "CDISCPILOT01",
    "USUBJID": "01-708-1253",
    "SUBJID": "1253",
    "SITEID": "708",
    "AGE": 61,
    "AGEU": "YEARS",
    "SEX": "M",
    "RACE": "WHITE",
    "ETHNIC": "NOT HISPANIC OR LATINO",
    "ARM": "Placebo",
    "ARMCD": "Pbo",
    "ACTARM": "Placebo",
    "ACTARMCD": "Pbo",
    "RFSTDTC": "2013-05-07",
    "RFENDTC": "2013-11-05",
    "DTHDTC": "",
    "DTHFL": null,
    "COUNTRY": "USA",
    "TRT01P": "Placebo",
    "TRT01A": "Placebo",
    "TRT01PN": 0,
    "TRT01AN": 0,
    "AGEGR1": "<65",
    "AGEGR1N": 1,
    "RACEN": 1,
    "TRTSDT": "2013-05-07",
    "TRTEDT": "2013-11-05",
    "TRTDUR": 183,
    "EOSSTT": "COMPLETED",
    "DCSREAS": null,
    "DISDT": "2013-11-05",
    "COMP16FL": "Y",
    "COMP24FL": "Y",
    "COMP8FL": "Y",
    "EFFFL": "Y",
    "ITTFL": "Y",
    "SAFFL": "Y",
    "EDUCLVL": 12,
    "MMSETOT": null,
    "DISONSDT": "2009-03-12",
    "DURDIS": 49.4784,
    "DURDSGR1": ">=12",
    "WEIGHTBL": 75.75,
    "HEIGHTBL": null,
    "BMIBL": null,
    "BMIBLGR1": null,
    "DTHDT": null,
    "SITEGR1": "708"
  },
  {
    "STUDYID": "CDISCPILOT01",
    "USUBJID": "01-708-1272",
    "SUBJID": "1272",
    "SITEID": "708",
    "AGE": 82,
    "AGEU": "YEARS",
    "SEX": "M",
    "RACE": "WHITE",
    "ETHNIC": "NOT HISPANIC OR LATINO",
    "ARM": "Xanomeline Low Dose",
    "ARMCD": "Xan_Lo",
    "ACTARM": "Xanomeline Low Dose",
    "ACTARMCD": "Xan_Lo",
    "RFSTDTC": "2013-02-06",
    "RFENDTC": "2013-04-04",
    "DTHDTC": "",
    "DTHFL": null,
    "COUNTRY": "USA",
    "TRT01P": "Xanomeline Low Dose",
    "TRT01A": "Xanomeline Low Dose",
    "TRT01PN": 1,
    "TRT01AN": 1,
    "AGEGR1": ">80",
    "AGEGR1N": 3,
    "RACEN": 1,
    "TRTSDT": "2013-02-06",
    "TRTEDT": "2013-03-22",
    "TRTDUR": 45,
    "EOSSTT": "DISCONTINUED",
    "DCSREAS": "WITHDRAWAL BY SUBJECT",
    "DISDT": "2013-04-04",
    "COMP16FL": "N",
    "COMP24FL": "N",
    "COMP8FL": "Y",
    "EFFFL": "Y",
    "ITTFL": "Y",
    "SAFFL": "Y",
    "EDUCLVL": 11,
    "MMSETOT": null,
    "DISONSDT": "2006-08-07",
    "DURDIS": 77.5359,
    "DURDSGR1": ">=12",
    "WEIGHTBL": 74.39,
    "HEIGHTBL": null,
    "BMIBL": null,
    "BMIBLGR1": null,
    "DTHDT": null,
    "SITEGR1": "708"
  },
  {
    "STUDYID": "CDISCPILOT01",
    "USUBJID": "01-708-1286",
    "SUBJID": "1286",
    "SITEID": "708",
    "AGE": 80,
    "AGEU": "YEARS",
    "SEX": "F",
    "RACE": "BLACK OR AFRICAN AMERICAN",
    "ETHNIC": "NOT HISPANIC OR LATINO",
    "ARM": "Placebo",
    "ARMCD": "Pbo",
    "ACTARM": "Placebo",
    "ACTARMCD": "Pbo",
    "RFSTDTC": "2013-09-10",
    "RFENDTC": "2014-03-08",
    "DTHDTC": "",
    "DTHFL": null,
    "COUNTRY": "USA",
    "TRT01P": "Placebo",
    "TRT01A": "Placebo",
    "TRT01PN": 0,
    "TRT01AN": 0,
    "AGEGR1": "65-80",
    "AGEGR1N": 2,
    "RACEN": 2,
    "TRTSDT": "2013-09-10",
    "TRTEDT": "2014-03-08",
    "TRTDUR": 180,
    "EOSSTT": "COMPLETED",
    "DCSREAS": null,
    "DISDT": "2014-03-08",
    "COMP16FL": "Y",
    "COMP24FL": "Y",
    "COMP8FL": "Y",
    "EFFFL": "Y",
    "ITTFL": "Y",
    "SAFFL": "Y",
    "EDUCLVL": 12,
    "MMSETOT": null,
    "DISONSDT": "2001-10-03",
    "DURDIS": 142.7187,
    "DURDSGR1": ">=12",
    "WEIGHTBL": 76.2,
    "HEIGHTBL": null,
    "BMIBL": null,
    "BMIBLGR1": null,
    "DTHDT": null,
    "SITEGR1": "708"
  },
  {
    "STUDYID": "CDISCPILOT01",
    "USUBJID": "01-708-1296",
    "SUBJID": "1296",
    "SITEID": "708",
    "AGE": 57,
    "AGEU": "YEARS",
    "SEX": "M",
    "RACE": "BLACK OR AFRICAN AMERICAN",
    "ETHNIC": "NOT HISPANIC OR LATINO",
    "ARM": "Placebo",
    "ARMCD": "Pbo",
    "ACTARM": "Placebo",
    "ACTARMCD": "Pbo",
    "RFSTDTC": "2013-06-14",
    "RFENDTC": "2013-12-12",
    "DTHDTC": "",
    "DTHFL": null,
    "COUNTRY": "USA",
    "TRT01P": "Placebo",
    "TRT01A": "Placebo",
    "TRT01PN": 0,
    "TRT01AN": 0,
    "AGEGR1": "<65",
    "AGEGR1N": 1,
    "RACEN": 2,
    "TRTSDT": "2013-06-14",
    "TRTEDT": "2013-12-12",
    "TRTDUR": 182,
    "EOSSTT": "COMPLETED",
    "DCSREAS": null,
    "DISDT": "2013-12-12",
    "COMP16FL": "Y",
    "COMP24FL": "Y",
    "COMP8FL": "Y",
    "EFFFL": "Y",
    "ITTFL": "Y",
    "SAFFL": "Y",
    "EDUCLVL": 18,
    "MMSETOT": null,
    "DISONSDT": "2010-02-03",
    "DURDIS": 40.0821,
    "DURDSGR1": ">=12",
    "WEIGHTBL": 80.74,
    "HEIGHTBL": null,
    "BMIBL": null,
    "BMIBLGR1": null,
    "DTHDT": null,
    "SITEGR1": "708"
  },
  {
    "STUDYID": "CDISCPILOT01",
    "USUBJID": "01-708-1297",
    "SUBJID": "1297",
    "SITEID": "708",
    "AGE": 61,
    "AGEU": "YEARS",
    "SEX": "M",
    "RACE": "WHITE",
    "ETHNIC": "NOT HISPANIC OR LATINO",
    "ARM": "Xanomeline Low Dose",
    "ARMCD": "Xan_Lo",
    "ACTARM": "Xanomeline Low Dose",
    "ACTARMCD": "Xan_Lo",
    "RFSTDTC": "2013-01-25",
    "RFENDTC": "2013-05-08",
    "DTHDTC": "",
    "DTHFL": null,
    "COUNTRY": "USA",
    "TRT01P": "Xanomeline Low Dose",
    "TRT01A": "Xanomeline Low Dose",
    "TRT01PN": 1,
    "TRT01AN": 1,
    "AGEGR1": "<65",
    "AGEGR1N": 1,
    "RACEN": 1,
    "TRTSDT": "2013-01-25",
    "TRTEDT": "2013-05-03",
    "TRTDUR": 99,
    "EOSSTT": "DISCONTINUED",
    "DCSREAS": "ADVERSE EVENT",
    "DISDT": "2013-05-08",
    "COMP16FL": "Y",
    "COMP24FL": "N",
    "COMP8FL": "Y",
    "EFFFL": "Y",
    "ITTFL": "Y",
    "SAFFL": "Y",
    "EDUCLVL": 13,
    "MMSETOT": null,
    "DISONSDT": "2008-02-27",
    "DURDIS": 58.6119,
    "DURDSGR1": ">=12",
    "WEIGHTBL": 78.93,
    "HEIGHTBL": null,
    "BMIBL": null,
    "BMIBLGR1": null,
    "DTHDT": null,
    "SITEGR1": "708"
  },
  {
    "STUDYID": "CDISCPILOT01",
    "USUBJID": "01-708-1316",
    "SUBJID": "1316",
    "SITEID": "708",
    "AGE": 74,
    "AGEU": "YEARS",
    "SEX": "F",
    "RACE": "WHITE",
    "ETHNIC": "NOT HISPANIC OR LATINO",
    "ARM": "Placebo",
    "ARMCD": "Pbo",
    "ACTARM": "Placebo",
    "ACTARMCD": "Pbo",
    "RFSTDTC": "2013-08-23",
    "RFENDTC": "2014-03-01",
    "DTHDTC": "",
    "DTHFL": null,
    "COUNTRY": "USA",
    "TRT01P": "Placebo",
    "TRT01A": "Placebo",
    "TRT01PN": 0,
    "TRT01AN": 0,
    "AGEGR1": "65-80",
    "AGEGR1N": 2,
    "RACEN": 1,
    "TRTSDT": "2013-08-23",
    "TRTEDT": "2014-03-01",
    "TRTDUR": 191,
    "EOSSTT": "COMPLETED",
    "DCSREAS": null,
    "DISDT": "2014-03-01",
    "COMP16FL": "Y",
    "COMP24FL": "Y",
    "COMP8FL": "Y",
    "EFFFL": "Y",
    "ITTFL": "Y",
    "SAFFL": "Y",
    "EDUCLVL": 12,
    "MMSETOT": null,
    "DISONSDT": "2011-08-08",
    "DURDIS": 24.2464,
    "DURDSGR1": ">=12",
    "WEIGHTBL": 59.88,
    "HEIGHTBL": null,
    "BMIBL": null,
    "BMIBLGR1": null,
    "DTHDT": null,
    "SITEGR1": "708"
  },
  {
    "STUDYID": "CDISCPILOT01",
    "USUBJID": "01-708-1336",
    "SUBJID": "1336",
    "SITEID": "708",
    "AGE": 73,
    "AGEU": "YEARS",
    "SEX": "M",
    "RACE": "WHITE",
    "ETHNIC": "NOT HISPANIC OR LATINO",
    "ARM": "Xanomeline High Dose",
    "ARMCD": "Xan_Hi",
    "ACTARM": "Xanomeline High Dose",
    "ACTARMCD": "Xan_Hi",
    "RFSTDTC": "2012-12-07",
    "RFENDTC": "2013-06-05",
    "DTHDTC": "",
    "DTHFL": null,
    "COUNTRY": "USA",
    "TRT01P": "Xanomeline High Dose",
    "TRT01A": "Xanomeline High Dose",
    "TRT01PN": 2,
    "TRT01AN": 2,
    "AGEGR1": "65-80",
    "AGEGR1N": 2,
    "RACEN": 1,
    "TRTSDT": "2012-12-07",
    "TRTEDT": "2013-06-05",
    "TRTDUR": 181,
    "EOSSTT": "COMPLETED",
    "DCSREAS": null,
    "DISDT": "2013-06-05",
    "COMP16FL": "Y",
    "COMP24FL": "Y",
    "COMP8FL": "Y",
    "EFFFL": "Y",
    "ITTFL": "Y",
    "SAFFL": "Y",
    "EDUCLVL": 18,
    "MMSETOT": null,
    "DISONSDT": "2002-12-01",
    "DURDIS": 119.6879,
    "DURDSGR1": ">=12",
    "WEIGHTBL": 87.54,
    "HEIGHTBL": null,
    "BMIBL": null,
    "BMIBLGR1": null,
    "DTHDT": null,
    "SITEGR1": "708"
  },
  {
    "STUDYID": "CDISCPILOT01",
    "USUBJID": "01-708-1342",
    "SUBJID": "1342",
    "SITEID": "708",
    "AGE": 59,
    "AGEU": "YEARS",
    "SEX": "F",
    "RACE": "WHITE",
    "ETHNIC": "NOT HISPANIC OR LATINO",
    "ARM": "Placebo",
    "ARMCD": "Pbo",
    "ACTARM": "Placebo",
    "ACTARMCD": "Pbo",
    "RFSTDTC": "2012-12-29",
    "RFENDTC": "2013-06-28",
    "DTHDTC": "",
    "DTHFL": null,
    "COUNTRY": "USA",
    "TRT01P": "Placebo",
    "TRT01A": "Placebo",
    "TRT01PN": 0,
    "TRT01AN": 0,
    "AGEGR1": "<65",
    "AGEGR1N": 1,
    "RACEN": 1,
    "TRTSDT": "2012-12-29",
    "TRTEDT": "2013-06-28",
    "TRTDUR": 182,
    "EOSSTT": "COMPLETED",
    "DCSREAS": null,
    "DISDT": "2013-06-28",
    "COMP16FL": "Y",
    "COMP24FL": "Y",
    "COMP8FL": "Y",
    "EFFFL": "Y",
    "ITTFL": "Y",
    "SAFFL": "Y",
    "EDUCLVL": 13,
    "MMSETOT": null,
    "DISONSDT": "2010-09-24",
    "DURDIS": 26.9076,
    "DURDSGR1": ">=12",
    "WEIGHTBL": 58.97,
    "HEIGHTBL": null,
    "BMIBL": null,
    "BMIBLGR1": null,
    "DTHDT": null,
    "SITEGR1": "708"
  },
  {
    "STUDYID": "CDISCPILOT01",
    "USUBJID": "01-708-1347",
    "SUBJID": "1347",
    "SITEID": "708",
    "AGE": 61,
    "AGEU": "YEARS",
    "SEX": "F",
    "RACE": "WHITE",
    "ETHNIC": "NOT HISPANIC OR LATINO",
    "ARM": "Xanomeline High Dose",
    "ARMCD": "Xan_Hi",
    "ACTARM": "Xanomeline High Dose",
    "ACTARMCD": "Xan_Hi",
    "RFSTDTC": "2013-04-20",
    "RFENDTC": "2013-06-18",
    "DTHDTC": "",
    "DTHFL": null,
    "COUNTRY": "USA",
    "TRT01P": "Xanomeline High Dose",
    "TRT01A": "Xanomeline High Dose",
    "TRT01PN": 2,
    "TRT01AN": 2,
    "AGEGR1": "<65",
    "AGEGR1N": 1,
    "RACEN": 1,
    "TRTSDT": "2013-04-20",
    "TRTEDT": "2013-06-18",
    "TRTDUR": 60,
    "EOSSTT": "DISCONTINUED",
    "DCSREAS": "ADVERSE EVENT",
    "DISDT": "2013-06-18",
    "COMP16FL": "N",
    "COMP24FL": "N",
    "COMP8FL": "Y",
    "EFFFL": "Y",
    "ITTFL": "Y",
    "SAFFL": "Y",
    "EDUCLVL": 12,
    "MMSETOT": null,
    "DISONSDT": "2009-05-23",
    "DURDIS": 46.6201,
    "DURDSGR1": ">=12",
    "WEIGHTBL": 74.84,
    "HEIGHTBL": null,
    "BMIBL": null,
    "BMIBLGR1": null,
    "DTHDT": null,
    "SITEGR1": "708"
  },
  {
    "STUDYID": "CDISCPILOT01",
    "USUBJID": "01-708-1348",
    "SUBJID": "1348",
    "SITEID": "708",
    "AGE": 79,
    "AGEU": "YEARS",
    "SEX": "F",
    "RACE": "WHITE",
    "ETHNIC": "NOT HISPANIC OR LATINO",
    "ARM": "Xanomeline Low Dose",
    "ARMCD": "Xan_Lo",
    "ACTARM": "Xanomeline Low Dose",
    "ACTARMCD": "Xan_Lo",
    "RFSTDTC": "2013-08-05",
    "RFENDTC": "2014-02-13",
    "DTHDTC": "",
    "DTHFL": null,
    "COUNTRY": "USA",
    "TRT01P": "Xanomeline Low Dose",
    "TRT01A": "Xanomeline Low Dose",
    "TRT01PN": 1,
    "TRT01AN": 1,
    "AGEGR1": "65-80",
    "AGEGR1N": 2,
    "RACEN": 1,
    "TRTSDT": "2013-08-05",
    "TRTEDT": "2014-02-13",
    "TRTDUR": 193,
    "EOSSTT": "COMPLETED",
    "DCSREAS": null,
    "DISDT": "2014-02-13",
    "COMP16FL": "Y",
    "COMP24FL": "Y",
    "COMP8FL": "Y",
    "EFFFL": "Y",
    "ITTFL": "Y",
    "SAFFL": "Y",
    "EDUCLVL": 12,
    "MMSETOT": null,
    "DISONSDT": "2010-07-29",
    "DURDIS": 35.9754,
    "DURDSGR1": ">=12",
    "WEIGHTBL": 60.33,
    "HEIGHTBL": null,
    "BMIBL": null,
    "BMIBLGR1": null,
    "DTHDT": null,
    "SITEGR1": "708"
  },
  {
    "STUDYID": "CDISCPILOT01",
    "USUBJID": "01-708-1352",
    "SUBJID": "1352",
    "SITEID": "708",
    "AGE": 87,
    "AGEU": "YEARS",
    "SEX": "F",
    "RACE": "WHITE",
    "ETHNIC": "NOT HISPANIC OR LATINO",
    "ARM": "Screen Failure",
    "ARMCD": "Scrnfail",
    "ACTARM": "Screen Failure",
    "ACTARMCD": "Scrnfail",
    "RFSTDTC": "",
    "RFENDTC": "",
    "DTHDTC": "",
    "DTHFL": null,
    "COUNTRY": "USA",
    "TRT01P": "Screen Failure",
    "TRT01A": "Screen Failure",
    "TRT01PN": null,
    "TRT01AN": null,
    "AGEGR1": ">80",
    "AGEGR1N": 3,
    "RACEN": 1,
    "TRTSDT": null,
    "TRTEDT": null,
    "TRTDUR": null,
    "EOSSTT": "DISCONTINUED",
    "DCSREAS": "SCREEN FAILURE",
    "DISDT": "2013-09-16",
    "COMP16FL": "N",
    "COMP24FL": "N",
    "COMP8FL": "N",
    "EFFFL": "N",
    "ITTFL": "N",
    "SAFFL": "N",
    "EDUCLVL": null,
    "MMSETOT": null,
    "DISONSDT": null,
    "DURDIS": null,
    "DURDSGR1": ">=12",
    "WEIGHTBL": null,
    "HEIGHTBL": null,
    "BMIBL": null,
    "BMIBLGR1": null,
    "DTHDT": null,
    "SITEGR1": "708"
  },
  {
    "STUDYID": "CDISCPILOT01",
    "USUBJID": "01-708-1353",
    "SUBJID": "1353",
    "SITEID": "708",
    "AGE": 87,
    "AGEU": "YEARS",
    "SEX": "F",
    "RACE": "BLACK OR AFRICAN AMERICAN",
    "ETHNIC": "NOT HISPANIC OR LATINO",
    "ARM": "Xanomeline Low Dose",
    "ARMCD": "Xan_Lo",
    "ACTARM": "Xanomeline Low Dose",
    "ACTARMCD": "Xan_Lo",
    "RFSTDTC": "2013-07-04",
    "RFENDTC": "2013-09-10",
    "DTHDTC": "",
    "DTHFL": null,
    "COUNTRY": "USA",
    "TRT01P": "Xanomeline Low Dose",
    "TRT01A": "Xanomeline Low Dose",
    "TRT01PN": 1,
    "TRT01AN": 1,
    "AGEGR1": ">80",
    "AGEGR1N": 3,
    "RACEN": 2,
    "TRTSDT": "2013-07-04",
    "TRTEDT": "2013-08-28",
    "TRTDUR": 56,
    "EOSSTT": "DISCONTINUED",
    "DCSREAS": "ADVERSE EVENT",
    "DISDT": "2013-09-10",
    "COMP16FL": "N",
    "COMP24FL": "N",
    "COMP8FL": "Y",
    "EFFFL": "Y",
    "ITTFL": "Y",
    "SAFFL": "Y",
    "EDUCLVL": 16,
    "MMSETOT": null,
    "DISONSDT": "2010-08-06",
    "DURDIS": 34.3655,
    "DURDSGR1": ">=12",
    "WEIGHTBL": 50.35,
    "HEIGHTBL": null,
    "BMIBL": null,
    "BMIBLGR1": null,
    "DTHDT": null,
    "SITEGR1": "708"
  },
  {
    "STUDYID": "CDISCPILOT01",
    "USUBJID": "01-708-1372",
    "SUBJID": "1372",
    "SITEID": "708",
    "AGE": 84,
    "AGEU": "YEARS",
    "SEX": "M",
    "RACE": "WHITE",
    "ETHNIC": "NOT HISPANIC OR LATINO",
    "ARM": "Xanomeline High Dose",
    "ARMCD": "Xan_Hi",
    "ACTARM": "Xanomeline Low Dose",
    "ACTARMCD": "Xan_Lo",
    "RFSTDTC": "2013-04-12",
    "RFENDTC": "2013-05-10",
    "DTHDTC": "",
    "DTHFL": null,
    "COUNTRY": "USA",
    "TRT01P": "Xanomeline High Dose",
    "TRT01A": "Xanomeline Low Dose",
    "TRT01PN": 2,
    "TRT01AN": 1,
    "AGEGR1": ">80",
    "AGEGR1N": 3,
    "RACEN": 1,
    "TRTSDT": "2013-04-12",
    "TRTEDT": "2013-04-19",
    "TRTDUR": 8,
    "EOSSTT": "DISCONTINUED",
    "DCSREAS": "PROTOCOL VIOLATION",
    "DISDT": "2013-05-10",
    "COMP16FL": "N",
    "COMP24FL": "N",
    "COMP8FL": "N",
    "EFFFL": "N",
    "ITTFL": "Y",
    "SAFFL": "Y",
    "EDUCLVL": 8,
    "MMSETOT": null,
    "DISONSDT": "2007-09-17",
    "DURDIS": 66.5298,
    "DURDSGR1": ">=12",
    "WEIGHTBL": 88.91,
    "HEIGHTBL": null,
    "BMIBL": null,
    "BMIBLGR1": null,
    "DTHDT": null,
    "SITEGR1": "708"
  },
  {
    "STUDYID": "CDISCPILOT01",
    "USUBJID": "01-708-1378",
    "SUBJID": "1378",
    "SITEID": "708",
    "AGE": 67,
    "AGEU": "YEARS",
    "SEX": "M",
    "RACE": "BLACK OR AFRICAN AMERICAN",
    "ETHNIC": "NOT HISPANIC OR LATINO",
    "ARM": "Placebo",
    "ARMCD": "Pbo",
    "ACTARM": "Placebo",
    "ACTARMCD": "Pbo",
    "RFSTDTC": "2013-09-03",
    "RFENDTC": "2014-01-28",
    "DTHDTC": "",
    "DTHFL": null,
    "COUNTRY": "USA",
    "TRT01P": "Placebo",
    "TRT01A": "Placebo",
    "TRT01PN": 0,
    "TRT01AN": 0,
    "AGEGR1": "65-80",
    "AGEGR1N": 2,
    "RACEN": 2,
    "TRTSDT": "2013-09-03",
    "TRTEDT": "2014-01-28",
    "TRTDUR": 148,
    "EOSSTT": "DISCONTINUED",
    "DCSREAS": "STUDY TERMINATED BY SPONSOR",
    "DISDT": "2014-01-28",
    "COMP16FL": "Y",
    "COMP24FL": "N",
    "COMP8FL": "Y",
    "EFFFL": "Y",
    "ITTFL": "Y",
    "SAFFL": "Y",
    "EDUCLVL": 13,
    "MMSETOT": null,
    "DISONSDT": "2009-03-16",
    "DURDIS": 53.2895,
    "DURDSGR1": ">=12",
    "WEIGHTBL": 70.31,
    "HEIGHTBL": null,
    "BMIBL": null,
    "BMIBLGR1": null,
    "DTHDT": null,
    "SITEGR1": "708"
  },
  {
    "STUDYID": "CDISCPILOT01",
    "USUBJID": "01-708-1406",
    "SUBJID": "1406",
    "SITEID": "708",
    "AGE": 71,
    "AGEU": "YEARS",
    "SEX": "F",
    "RACE": "WHITE",
    "ETHNIC": "NOT HISPANIC OR LATINO",
    "ARM": "Xanomeline High Dose",
    "ARMCD": "Xan_Hi",
    "ACTARM": "Xanomeline High Dose",
    "ACTARMCD": "Xan_Hi",
    "RFSTDTC": "2013-12-26",
    "RFENDTC": "2014-07-02",
    "DTHDTC": "",
    "DTHFL": null,
    "COUNTRY": "USA",
    "TRT01P": "Xanomeline High Dose",
    "TRT01A": "Xanomeline High Dose",
    "TRT01PN": 2,
    "TRT01AN": 2,
    "AGEGR1": "65-80",
    "AGEGR1N": 2,
    "RACEN": 1,
    "TRTSDT": "2013-12-26",
    "TRTEDT": "2014-07-02",
    "TRTDUR": 189,
    "EOSSTT": "COMPLETED",
    "DCSREAS": null,
    "DISDT": "2014-07-02",
    "COMP16FL": "Y",
    "COMP24FL": "Y",
    "COMP8FL": "Y",
    "EFFFL": "Y",
    "ITTFL": "Y",
    "SAFFL": "Y",
    "EDUCLVL": 13,
    "MMSETOT": null,
    "DISONSDT": "2010-06-24",
    "DURDIS": 41.4292,
    "DURDSGR1": ">=12",
    "WEIGHTBL": 54.89,
    "HEIGHTBL": null,
    "BMIBL": null,
    "BMIBLGR1": null,
    "DTHDT": null,
    "SITEGR1": "708"
  },
  {
    "STUDYID": "CDISCPILOT01",
    "USUBJID": "01-708-1428",
    "SUBJID": "1428",
    "SITEID": "708",
    "AGE": 84,
    "AGEU": "YEARS",
    "SEX": "F",
    "RACE": "WHITE",
    "ETHNIC": "NOT HISPANIC OR LATINO",
    "ARM": "Xanomeline Low Dose",
    "ARMCD": "Xan_Lo",
    "ACTARM": "Xanomeline Low Dose",
    "ACTARMCD": "Xan_Lo",
    "RFSTDTC": "2013-11-09",
    "RFENDTC": "2014-01-31",
    "DTHDTC": "",
    "DTHFL": null,
    "COUNTRY": "USA",
    "TRT01P": "Xanomeline Low Dose",
    "TRT01A": "Xanomeline Low Dose",
    "TRT01PN": 1,
    "TRT01AN": 1,
    "AGEGR1": ">80",
    "AGEGR1N": 3,
    "RACEN": 1,
    "TRTSDT": "2013-11-09",
    "TRTEDT": "2013-12-14",
    "TRTDUR": 36,
    "EOSSTT": "DISCONTINUED",
    "DCSREAS": "ADVERSE EVENT",
    "DISDT": "2014-01-31",
    "COMP16FL": "N",
    "COMP24FL": "N",
    "COMP8FL": "Y",
    "EFFFL": "Y",
    "ITTFL": "Y",
    "SAFFL": "Y",
    "EDUCLVL": 8,
    "MMSETOT": null,
    "DISONSDT": "2010-10-27",
    "DURDIS": 36.2053,
    "DURDSGR1": ">=12",
    "WEIGHTBL": 58.97,
    "HEIGHTBL": null,
    "BMIBL": null,
    "BMIBLGR1": null,
    "DTHDT": null,
    "SITEGR1": "708"
  },
  {
    "STUDYID": "CDISCPILOT01",
    "USUBJID": "01-709-1001",
    "SUBJID": "1001",
    "SITEID": "709",
    "AGE": 76,
    "AGEU": "YEARS",
    "SEX": "F",
    "RACE": "WHITE",
    "ETHNIC": "NOT HISPANIC OR LATINO",
    "ARM": "Placebo",
    "ARMCD": "Pbo",
    "ACTARM": "Placebo",
    "ACTARMCD": "Pbo",
    "RFSTDTC": "2013-10-08",
    "RFENDTC": "2014-04-08",
    "DTHDTC": "",
    "DTHFL": null,
    "COUNTRY": "USA",
    "TRT01P": "Placebo",
    "TRT01A": "Placebo",
    "TRT01PN": 0,
    "TRT01AN": 0,
    "AGEGR1": "65-80",
    "AGEGR1N": 2,
    "RACEN": 1,
    "TRTSDT": "2013-10-08",
    "TRTEDT": "2014-04-08",
    "TRTDUR": 183,
    "EOSSTT": "COMPLETED",
    "DCSREAS": null,
    "DISDT": "2014-04-08",
    "COMP16FL": "Y",
    "COMP24FL": "Y",
    "COMP8FL": "Y",
    "EFFFL": "Y",
    "ITTFL": "Y",
    "SAFFL": "Y",
    "EDUCLVL": 12,
    "MMSETOT": null,
    "DISONSDT": "2011-01-30",
    "DURDIS": 31.6715,
    "DURDSGR1": ">=12",
    "WEIGHTBL": 73.03,
    "HEIGHTBL": null,
    "BMIBL": null,
    "BMIBLGR1": null,
    "DTHDT": null,
    "SITEGR1": "709"
  },
  {
    "STUDYID": "CDISCPILOT01",
    "USUBJID": "01-709-1007",
    "SUBJID": "1007",
    "SITEID": "709",
    "AGE": 54,
    "AGEU": "YEARS",
    "SEX": "F",
    "RACE": "WHITE",
    "ETHNIC": "NOT HISPANIC OR LATINO",
    "ARM": "Xanomeline Low Dose",
    "ARMCD": "Xan_Lo",
    "ACTARM": "Xanomeline Low Dose",
    "ACTARMCD": "Xan_Lo",
    "RFSTDTC": "2012-07-31",
    "RFENDTC": "2012-09-01",
    "DTHDTC": "",
    "DTHFL": null,
    "COUNTRY": "USA",
    "TRT01P": "Xanomeline Low Dose",
    "TRT01A": "Xanomeline Low Dose",
    "TRT01PN": 1,
    "TRT01AN": 1,
    "AGEGR1": "<65",
    "AGEGR1N": 1,
    "RACEN": 1,
    "TRTSDT": "2012-07-31",
    "TRTEDT": "2012-08-28",
    "TRTDUR": 29,
    "EOSSTT": "DISCONTINUED",
    "DCSREAS": "ADVERSE EVENT",
    "DISDT": "2012-09-01",
    "COMP16FL": "N",
    "COMP24FL": "N",
    "COMP8FL": "N",
    "EFFFL": "N",
    "ITTFL": "Y",
    "SAFFL": "Y",
    "EDUCLVL": 21,
    "MMSETOT": null,
    "DISONSDT": "2007-02-28",
    "DURDIS": 64.7228,
    "DURDSGR1": ">=12",
    "WEIGHTBL": 59.88,
    "HEIGHTBL": null,
    "BMIBL": null,
    "BMIBLGR1": null,
    "DTHDT": null,
    "SITEGR1": "709"
  },
  {
    "STUDYID": "CDISCPILOT01",
    "USUBJID": "01-709-1020",
    "SUBJID": "1020",
    "SITEID": "709",
    "AGE": 72,
    "AGEU": "YEARS",
    "SEX": "F",
    "RACE": "WHITE",
    "ETHNIC": "NOT HISPANIC OR LATINO",
    "ARM": "Xanomeline Low Dose",
    "ARMCD": "Xan_Lo",
    "ACTARM": "Xanomeline Low Dose",
    "ACTARMCD": "Xan_Lo",
    "RFSTDTC": "2012-12-01",
    "RFENDTC": "2013-06-01",
    "DTHDTC": "",
    "DTHFL": null,
    "COUNTRY": "USA",
    "TRT01P": "Xanomeline Low Dose",
    "TRT01A": "Xanomeline Low Dose",
    "TRT01PN": 1,
    "TRT01AN": 1,
    "AGEGR1": "65-80",
    "AGEGR1N": 2,
    "RACEN": 1,
    "TRTSDT": "2012-12-01",
    "TRTEDT": "2013-06-01",
    "TRTDUR": 183,
    "EOSSTT": "COMPLETED",
    "DCSREAS": null,
    "DISDT": "2013-06-01",
    "COMP16FL": "Y",
    "COMP24FL": "Y",
    "COMP8FL": "Y",
    "EFFFL": "Y",
    "ITTFL": "Y",
    "SAFFL": "Y",
    "EDUCLVL": 12,
    "MMSETOT": null,
    "DISONSDT": "2009-02-26",
    "DURDIS": 44.846,
    "DURDSGR1": ">=12",
    "WEIGHTBL": 54.43,
    "HEIGHTBL": null,
    "BMIBL": null,
    "BMIBLGR1": null,
    "DTHDT": null,
    "SITEGR1": "709"
  },
  {
    "STUDYID": "CDISCPILOT01",
    "USUBJID": "01-709-1029",
    "SUBJID": "1029",
    "SITEID": "709",
    "AGE": 82,
    "AGEU": "YEARS",
    "SEX": "M",
    "RACE": "WHITE",
    "ETHNIC": "NOT HISPANIC OR LATINO",
    "ARM": "Xanomeline High Dose",
    "ARMCD": "Xan_Hi",
    "ACTARM": "Xanomeline High Dose",
    "ACTARMCD": "Xan_Hi",
    "RFSTDTC": "2012-12-25",
    "RFENDTC": "2013-06-26",
    "DTHDTC": "",
    "DTHFL": null,
    "COUNTRY": "USA",
    "TRT01P": "Xanomeline High Dose",
    "TRT01A": "Xanomeline High Dose",
    "TRT01PN": 2,
    "TRT01AN": 2,
    "AGEGR1": ">80",
    "AGEGR1N": 3,
    "RACEN": 1,
    "TRTSDT": "2012-12-25",
    "TRTEDT": "2013-06-26",
    "TRTDUR": 184,
    "EOSSTT": "COMPLETED",
    "DCSREAS": null,
    "DISDT": "2013-06-26",
    "COMP16FL": "Y",
    "COMP24FL": "Y",
    "COMP8FL": "Y",
    "EFFFL": "Y",
    "ITTFL": "Y",
    "SAFFL": "Y",
    "EDUCLVL": 20,
    "MMSETOT": null,
    "DISONSDT": "2009-06-02",
    "DURDIS": 42.2834,
    "DURDSGR1": ">=12",
    "WEIGHTBL": 68.95,
    "HEIGHTBL": null,
    "BMIBL": null,
    "BMIBLGR1": null,
    "DTHDT": null,
    "SITEGR1": "709"
  },
  {
    "STUDYID": "CDISCPILOT01",
    "USUBJID": "01-709-1081",
    "SUBJID": "1081",
    "SITEID": "709",
    "AGE": 86,
    "AGEU": "YEARS",
    "SEX": "F",
    "RACE": "WHITE",
    "ETHNIC": "NOT HISPANIC OR LATINO",
    "ARM": "Xanomeline Low Dose",
    "ARMCD": "Xan_Lo",
    "ACTARM": "Xanomeline Low Dose",
    "ACTARMCD": "Xan_Lo",
    "RFSTDTC": "2014-01-18",
    "RFENDTC": "2014-05-10",
    "DTHDTC": "",
    "DTHFL": null,
    "COUNTRY": "USA",
    "TRT01P": "Xanomeline Low Dose",
    "TRT01A": "Xanomeline Low Dose",
    "TRT01PN": 1,
    "TRT01AN": 1,
    "AGEGR1": ">80",
    "AGEGR1N": 3,
    "RACEN": 1,
    "TRTSDT": "2014-01-18",
    "TRTEDT": "2014-04-27",
    "TRTDUR": 100,
    "EOSSTT": "DISCONTINUED",
    "DCSREAS": "ADVERSE EVENT",
    "DISDT": "2014-05-10",
    "COMP16FL": "Y",
    "COMP24FL": "N",
    "COMP8FL": "Y",
    "EFFFL": "Y",
    "ITTFL": "Y",
    "SAFFL": "Y",
    "EDUCLVL": 9,
    "MMSETOT": null,
    "DISONSDT": "2011-08-06",
    "DURDIS": 29.1417,
    "DURDSGR1": ">=12",
    "WEIGHTBL": 56.47,
    "HEIGHTBL": null,
    "BMIBL": null,
    "BMIBLGR1": null,
    "DTHDT": null,
    "SITEGR1": "709"
  },
  {
    "STUDYID": "CDISCPILOT01",
    "USUBJID": "01-709-1088",
    "SUBJID": "1088",
    "SITEID": "709",
    "AGE": 69,
    "AGEU": "YEARS",
    "SEX": "M",
    "RACE": "WHITE",
    "ETHNIC": "NOT HISPANIC OR LATINO",
    "ARM": "Placebo",
    "ARMCD": "Pbo",
    "ACTARM": "Placebo",
    "ACTARMCD": "Pbo",
    "RFSTDTC": "2014-04-12",
    "RFENDTC": "2014-10-09",
    "DTHDTC": "",
    "DTHFL": null,
    "COUNTRY": "USA",
    "TRT01P": "Placebo",
    "TRT01A": "Placebo",
    "TRT01PN": 0,
    "TRT01AN": 0,
    "AGEGR1": "65-80",
    "AGEGR1N": 2,
    "RACEN": 1,
    "TRTSDT": "2014-04-12",
    "TRTEDT": "2014-10-09",
    "TRTDUR": 181,
    "EOSSTT": "COMPLETED",
    "DCSREAS": null,
    "DISDT": "2014-10-09",
    "COMP16FL": "Y",
    "COMP24FL": "Y",
    "COMP8FL": "Y",
    "EFFFL": "Y",
    "ITTFL": "Y",
    "SAFFL": "Y",
    "EDUCLVL": 16,
    "MMSETOT": null,
    "DISONSDT": "2012-02-25",
    "DURDIS": 25.1006,
    "DURDSGR1": ">=12",
    "WEIGHTBL": 79.38,
    "HEIGHTBL": null,
    "BMIBL": null,
    "BMIBLGR1": null,
    "DTHDT": null,
    "SITEGR1": "709"
  },
  {
    "STUDYID": "CDISCPILOT01",
    "USUBJID": "01-709-1099",
    "SUBJID": "1099",
    "SITEID": "709",
    "AGE": 79,
    "AGEU": "YEARS",
    "SEX": "F",
    "RACE": "WHITE",
    "ETHNIC": "NOT HISPANIC OR LATINO",
    "ARM": "Xanomeline High Dose",
    "ARMCD": "Xan_Hi",
    "ACTARM": "Xanomeline High Dose",
    "ACTARMCD": "Xan_Hi",
    "RFSTDTC": "2013-10-25",
    "RFENDTC": "2014-04-25",
    "DTHDTC": "",
    "DTHFL": null,
    "COUNTRY": "USA",
    "TRT01P": "Xanomeline High Dose",
    "TRT01A": "Xanomeline High Dose",
    "TRT01PN": 2,
    "TRT01AN": 2,
    "AGEGR1": "65-80",
    "AGEGR1N": 2,
    "RACEN": 1,
    "TRTSDT": "2013-10-25",
    "TRTEDT": "2014-04-25",
    "TRTDUR": 183,
    "EOSSTT": "COMPLETED",
    "DCSREAS": null,
    "DISDT": "2014-04-25",
    "COMP16FL": "Y",
    "COMP24FL": "Y",
    "COMP8FL": "Y",
    "EFFFL": "Y",
    "ITTFL": "Y",
    "SAFFL": "Y",
    "EDUCLVL": 12,
    "MMSETOT": null,
    "DISONSDT": "2009-04-20",
    "DURDIS": 53.8152,
    "DURDSGR1": ">=12",
    "WEIGHTBL": 53.52,
    "HEIGHTBL": null,
    "BMIBL": null,
    "BMIBLGR1": null,
    "DTHDT": null,
    "SITEGR1": "709"
  },
  {
    "STUDYID": "CDISCPILOT01",
    "USUBJID": "01-709-1102",
    "SUBJID": "1102",
    "SITEID": "709",
    "AGE": 71,
    "AGEU": "YEARS",
    "SEX": "F",
    "RACE": "WHITE",
    "ETHNIC": "NOT HISPANIC OR LATINO",
    "ARM": "Xanomeline Low Dose",
    "ARMCD": "Xan_Lo",
    "ACTARM": "Xanomeline Low Dose",
    "ACTARMCD": "Xan_Lo",
    "RFSTDTC": "2013-01-15",
    "RFENDTC": "2013-03-31",
    "DTHDTC": "",
    "DTHFL": null,
    "COUNTRY": "USA",
    "TRT01P": "Xanomeline Low Dose",
    "TRT01A": "Xanomeline Low Dose",
    "TRT01PN": 1,
    "TRT01AN": 1,
    "AGEGR1": "65-80",
    "AGEGR1N": 2,
    "RACEN": 1,
    "TRTSDT": "2013-01-15",
    "TRTEDT": "2013-03-27",
    "TRTDUR": 72,
    "EOSSTT": "DISCONTINUED",
    "DCSREAS": "ADVERSE EVENT",
    "DISDT": "2013-03-31",
    "COMP16FL": "N",
    "COMP24FL": "N",
    "COMP8FL": "Y",
    "EFFFL": "Y",
    "ITTFL": "Y",
    "SAFFL": "Y",
    "EDUCLVL": 14,
    "MMSETOT": null,
    "DISONSDT": "2009-07-13",
    "DURDIS": 41.8563,
    "DURDSGR1": ">=12",
    "WEIGHTBL": 88.91,
    "HEIGHTBL": null,
    "BMIBL": null,
    "BMIBLGR1": null,
    "DTHDT": null,
    "SITEGR1": "709"
  },
  {
    "STUDYID": "CDISCPILOT01",
    "USUBJID": "01-709-1168",
    "SUBJID": "1168",
    "SITEID": "709",
    "AGE": 72,
    "AGEU": "YEARS",
    "SEX": "F",
    "RACE": "WHITE",
    "ETHNIC": "NOT HISPANIC OR LATINO",
    "ARM": "Xanomeline High Dose",
    "ARMCD": "Xan_Hi",
    "ACTARM": "Xanomeline High Dose",
    "ACTARMCD": "Xan_Hi",
    "RFSTDTC": "2013-08-02",
    "RFENDTC": "2013-09-27",
    "DTHDTC": "",
    "DTHFL": null,
    "COUNTRY": "USA",
    "TRT01P": "Xanomeline High Dose",
    "TRT01A": "Xanomeline High Dose",
    "TRT01PN": 2,
    "TRT01AN": 2,
    "AGEGR1": "65-80",
    "AGEGR1N": 2,
    "RACEN": 1,
    "TRTSDT": "2013-08-02",
    "TRTEDT": "2013-09-26",
    "TRTDUR": 56,
    "EOSSTT": "DISCONTINUED",
    "DCSREAS": "ADVERSE EVENT",
    "DISDT": "2013-09-27",
    "COMP16FL": "N",
    "COMP24FL": "N",
    "COMP8FL": "Y",
    "EFFFL": "Y",
    "ITTFL": "Y",
    "SAFFL": "Y",
    "EDUCLVL": 12,
    "MMSETOT": null,
    "DISONSDT": "2009-10-29",
    "DURDIS": 44.846,
    "DURDSGR1": ">=12",
    "WEIGHTBL": 62.14,
    "HEIGHTBL": null,
    "BMIBL": null,
    "BMIBLGR1": null,
    "DTHDT": null,
    "SITEGR1": "709"
  },
  {
    "STUDYID": "CDISCPILOT01",
    "USUBJID": "01-709-1217",
    "SUBJID": "1217",
    "SITEID": "709",
    "AGE": 77,
    "AGEU": "YEARS",
    "SEX": "M",
    "RACE": "WHITE",
    "ETHNIC": "NOT HISPANIC OR LATINO",
    "ARM": "Xanomeline Low Dose",
    "ARMCD": "Xan_Lo",
    "ACTARM": "Xanomeline Low Dose",
    "ACTARMCD": "Xan_Lo",
    "RFSTDTC": "2013-03-04",
    "RFENDTC": "2013-06-25",
    "DTHDTC": "",
    "DTHFL": null,
    "COUNTRY": "USA",
    "TRT01P": "Xanomeline Low Dose",
    "TRT01A": "Xanomeline Low Dose",
    "TRT01PN": 1,
    "TRT01AN": 1,
    "AGEGR1": "65-80",
    "AGEGR1N": 2,
    "RACEN": 1,
    "TRTSDT": "2013-03-04",
    "TRTEDT": "2013-06-11",
    "TRTDUR": 100,
    "EOSSTT": "DISCONTINUED",
    "DCSREAS": "ADVERSE EVENT",
    "DISDT": "2013-06-25",
    "COMP16FL": "Y",
    "COMP24FL": "N",
    "COMP8FL": "Y",
    "EFFFL": "Y",
    "ITTFL": "Y",
    "SAFFL": "Y",
    "EDUCLVL": 6,
    "MMSETOT": null,
    "DISONSDT": "2008-10-11",
    "DURDIS": 52.2053,
    "DURDSGR1": ">=12",
    "WEIGHTBL": 68.04,
    "HEIGHTBL": null,
    "BMIBL": null,
    "BMIBLGR1": null,
    "DTHDT": null,
    "SITEGR1": "709"
  },
  {
    "STUDYID": "CDISCPILOT01",
    "USUBJID": "01-709-1224",
    "SUBJID": "1224",
    "SITEID": "709",
    "AGE": 84,
    "AGEU": "YEARS",
    "SEX": "M",
    "RACE": "WHITE",
    "ETHNIC": "NOT HISPANIC OR LATINO",
    "ARM": "Screen Failure",
    "ARMCD": "Scrnfail",
    "ACTARM": "Screen Failure",
    "ACTARMCD": "Scrnfail",
    "RFSTDTC": "",
    "RFENDTC": "",
    "DTHDTC": "",
    "DTHFL": null,
    "COUNTRY": "USA",
    "TRT01P": "Screen Failure",
    "TRT01A": "Screen Failure",
    "TRT01PN": null,
    "TRT01AN": null,
    "AGEGR1": ">80",
    "AGEGR1N": 3,
    "RACEN": 1,
    "TRTSDT": null,
    "TRTEDT": null,
    "TRTDUR": null,
    "EOSSTT": "DISCONTINUED",
    "DCSREAS": "SCREEN FAILURE",
    "DISDT": "2013-11-18",
    "COMP16FL": "N",
    "COMP24FL": "N",
    "COMP8FL": "N",
    "EFFFL": "N",
    "ITTFL": "N",
    "SAFFL": "N",
    "EDUCLVL": null,
    "MMSETOT": null,
    "DISONSDT": null,
    "DURDIS": null,
    "DURDSGR1": ">=12",
    "WEIGHTBL": null,
    "HEIGHTBL": null,
    "BMIBL": null,
    "BMIBLGR1": null,
    "DTHDT": null,
    "SITEGR1": "709"
  },
  {
    "STUDYID": "CDISCPILOT01",
    "USUBJID": "01-709-1237",
    "SUBJID": "1237",
    "SITEID": "709",
    "AGE": 88,
    "AGEU": "YEARS",
    "SEX": "F",
    "RACE": "WHITE",
    "ETHNIC": "HISPANIC OR LATINO",
    "ARM": "Screen Failure",
    "ARMCD": "Scrnfail",
    "ACTARM": "Screen Failure",
    "ACTARMCD": "Scrnfail",
    "RFSTDTC": "",
    "RFENDTC": "",
    "DTHDTC": "",
    "DTHFL": null,
    "COUNTRY": "USA",
    "TRT01P": "Screen Failure",
    "TRT01A": "Screen Failure",
    "TRT01PN": null,
    "TRT01AN": null,
    "AGEGR1": ">80",
    "AGEGR1N": 3,
    "RACEN": 1,
    "TRTSDT": null,
    "TRTEDT": null,
    "TRTDUR": null,
    "EOSSTT": "DISCONTINUED",
    "DCSREAS": "SCREEN FAILURE",
    "DISDT": "2014-01-17",
    "COMP16FL": "N",
    "COMP24FL": "N",
    "COMP8FL": "N",
    "EFFFL": "N",
    "ITTFL": "N",
    "SAFFL": "N",
    "EDUCLVL": null,
    "MMSETOT": null,
    "DISONSDT": null,
    "DURDIS": null,
    "DURDSGR1": ">=12",
    "WEIGHTBL": null,
    "HEIGHTBL": null,
    "BMIBL": null,
    "BMIBLGR1": null,
    "DTHDT": null,
    "SITEGR1": "709"
  },
  {
    "STUDYID": "CDISCPILOT01",
    "USUBJID": "01-709-1238",
    "SUBJID": "1238",
    "SITEID": "709",
    "AGE": 69,
    "AGEU": "YEARS",
    "SEX": "M",
    "RACE": "WHITE",
    "ETHNIC": "NOT HISPANIC OR LATINO",
    "ARM": "Xanomeline High Dose",
    "ARMCD": "Xan_Hi",
    "ACTARM": "Xanomeline High Dose",
    "ACTARMCD": "Xan_Hi",
    "RFSTDTC": "2013-05-15",
    "RFENDTC": "2013-08-07",
    "DTHDTC": "",
    "DTHFL": null,
    "COUNTRY": "USA",
    "TRT01P": "Xanomeline High Dose",
    "TRT01A": "Xanomeline High Dose",
    "TRT01PN": 2,
    "TRT01AN": 2,
    "AGEGR1": "65-80",
    "AGEGR1N": 2,
    "RACEN": 1,
    "TRTSDT": "2013-05-15",
    "TRTEDT": "2013-08-06",
    "TRTDUR": 84,
    "EOSSTT": "DISCONTINUED",
    "DCSREAS": "ADVERSE EVENT",
    "DISDT": "2013-08-07",
    "COMP16FL": "N",
    "COMP24FL": "N",
    "COMP8FL": "Y",
    "EFFFL": "Y",
    "ITTFL": "Y",
    "SAFFL": "Y",
    "EDUCLVL": 8,
    "MMSETOT": null,
    "DISONSDT": "2011-10-13",
    "DURDIS": 18.6283,
    "DURDSGR1": ">=12",
    "WEIGHTBL": 82.56,
    "HEIGHTBL": null,
    "BMIBL": null,
    "BMIBLGR1": null,
    "DTHDT": null,
    "SITEGR1": "709"
  },
  {
    "STUDYID": "CDISCPILOT01",
    "USUBJID": "01-709-1259",
    "SUBJID": "1259",
    "SITEID": "709",
    "AGE": 82,
    "AGEU": "YEARS",
    "SEX": "M",
    "RACE": "WHITE",
    "ETHNIC": "NOT HISPANIC OR LATINO",
    "ARM": "Placebo",
    "ARMCD": "Pbo",
    "ACTARM": "Placebo",
    "ACTARMCD": "Pbo",
    "RFSTDTC": "2013-01-26",
    "RFENDTC": "2013-06-13",
    "DTHDTC": "",
    "DTHFL": null,
    "COUNTRY": "USA",
    "TRT01P": "Placebo",
    "TRT01A": "Placebo",
    "TRT01PN": 0,
    "TRT01AN": 0,
    "AGEGR1": ">80",
    "AGEGR1N": 3,
    "RACEN": 1,
    "TRTSDT": "2013-01-26",
    "TRTEDT": "2013-06-13",
    "TRTDUR": 139,
    "EOSSTT": "DISCONTINUED",
    "DCSREAS": "LACK OF EFFICACY",
    "DISDT": "2013-06-13",
    "COMP16FL": "Y",
    "COMP24FL": "N",
    "COMP8FL": "Y",
    "EFFFL": "Y",
    "ITTFL": "Y",
    "SAFFL": "Y",
    "EDUCLVL": 18,
    "MMSETOT": null,
    "DISONSDT": "2008-08-06",
    "DURDIS": 53.2567,
    "DURDSGR1": ">=12",
    "WEIGHTBL": 65.32,
    "HEIGHTBL": null,
    "BMIBL": null,
    "BMIBLGR1": null,
    "DTHDT": null,
    "SITEGR1": "709"
  },
  {
    "STUDYID": "CDISCPILOT01",
    "USUBJID": "01-709-1285",
    "SUBJID": "1285",
    "SITEID": "709",
    "AGE": 87,
    "AGEU": "YEARS",
    "SEX": "M",
    "RACE": "WHITE",
    "ETHNIC": "NOT HISPANIC OR LATINO",
    "ARM": "Xanomeline Low Dose",
    "ARMCD": "Xan_Lo",
    "ACTARM": "Xanomeline Low Dose",
    "ACTARMCD": "Xan_Lo",
    "RFSTDTC": "2013-03-24",
    "RFENDTC": "2013-05-31",
    "DTHDTC": "",
    "DTHFL": null,
    "COUNTRY": "USA",
    "TRT01P": "Xanomeline Low Dose",
    "TRT01A": "Xanomeline Low Dose",
    "TRT01PN": 1,
    "TRT01AN": 1,
    "AGEGR1": ">80",
    "AGEGR1N": 3,
    "RACEN": 1,
    "TRTSDT": "2013-03-24",
    "TRTEDT": "2013-05-23",
    "TRTDUR": 61,
    "EOSSTT": "DISCONTINUED",
    "DCSREAS": "STUDY TERMINATED BY SPONSOR",
    "DISDT": "2013-05-31",
    "COMP16FL": "N",
    "COMP24FL": "N",
    "COMP8FL": "Y",
    "EFFFL": "Y",
    "ITTFL": "Y",
    "SAFFL": "Y",
    "EDUCLVL": 6,
    "MMSETOT": null,
    "DISONSDT": "2009-09-18",
    "DURDIS": 41.922,
    "DURDSGR1": ">=12",
    "WEIGHTBL": 64.86,
    "HEIGHTBL": null,
    "BMIBL": null,
    "BMIBLGR1": null,
    "DTHDT": null,
    "SITEGR1": "709"
  },
  {
    "STUDYID": "CDISCPILOT01",
    "USUBJID": "01-709-1301",
    "SUBJID": "1301",
    "SITEID": "709",
    "AGE": 62,
    "AGEU": "YEARS",
    "SEX": "F",
    "RACE": "WHITE",
    "ETHNIC": "NOT HISPANIC OR LATINO",
    "ARM": "Placebo",
    "ARMCD": "Pbo",
    "ACTARM": "Placebo",
    "ACTARMCD": "Pbo",
    "RFSTDTC": "2013-07-19",
    "RFENDTC": "2014-01-17",
    "DTHDTC": "",
    "DTHFL": null,
    "COUNTRY": "USA",
    "TRT01P": "Placebo",
    "TRT01A": "Placebo",
    "TRT01PN": 0,
    "TRT01AN": 0,
    "AGEGR1": "<65",
    "AGEGR1N": 1,
    "RACEN": 1,
    "TRTSDT": "2013-07-19",
    "TRTEDT": "2014-01-17",
    "TRTDUR": 183,
    "EOSSTT": "COMPLETED",
    "DCSREAS": null,
    "DISDT": "2014-01-17",
    "COMP16FL": "Y",
    "COMP24FL": "Y",
    "COMP8FL": "Y",
    "EFFFL": "Y",
    "ITTFL": "Y",
    "SAFFL": "Y",
    "EDUCLVL": 10,
    "MMSETOT": null,
    "DISONSDT": "2009-02-04",
    "DURDIS": 53.2567,
    "DURDSGR1": ">=12",
    "WEIGHTBL": 50.35,
    "HEIGHTBL": null,
    "BMIBL": null,
    "BMIBLGR1": null,
    "DTHDT": null,
    "SITEGR1": "709"
  },
  {
    "STUDYID": "CDISCPILOT01",
    "USUBJID": "01-709-1306",
    "SUBJID": "1306",
    "SITEID": "709",
    "AGE": 60,
    "AGEU": "YEARS",
    "SEX": "F",
    "RACE": "WHITE",
    "ETHNIC": "NOT HISPANIC OR LATINO",
    "ARM": "Placebo",
    "ARMCD": "Pbo",
    "ACTARM": "Placebo",
    "ACTARMCD": "Pbo",
    "RFSTDTC": "2014-02-03",
    "RFENDTC": "2014-06-25",
    "DTHDTC": "",
    "DTHFL": null,
    "COUNTRY": "USA",
    "TRT01P": "Placebo",
    "TRT01A": "Placebo",
    "TRT01PN": 0,
    "TRT01AN": 0,
    "AGEGR1": "<65",
    "AGEGR1N": 1,
    "RACEN": 1,
    "TRTSDT": "2014-02-03",
    "TRTEDT": "2014-06-16",
    "TRTDUR": 134,
    "EOSSTT": "DISCONTINUED",
    "DCSREAS": "ADVERSE EVENT",
    "DISDT": "2014-06-25",
    "COMP16FL": "Y",
    "COMP24FL": "N",
    "COMP8FL": "Y",
    "EFFFL": "Y",
    "ITTFL": "Y",
    "SAFFL": "Y",
    "EDUCLVL": 12,
    "MMSETOT": null,
    "DISONSDT": "2009-02-02",
    "DURDIS": 59.5318,
    "DURDSGR1": ">=12",
    "WEIGHTBL": 44.45,
    "HEIGHTBL": null,
    "BMIBL": null,
    "BMIBLGR1": null,
    "DTHDT": null,
    "SITEGR1": "709"
  },
  {
    "STUDYID": "CDISCPILOT01",
    "USUBJID": "01-709-1309",
    "SUBJID": "1309",
    "SITEID": "709",
    "AGE": 65,
    "AGEU": "YEARS",
    "SEX": "M",
    "RACE": "WHITE",
    "ETHNIC": "NOT HISPANIC OR LATINO",
    "ARM": "Xanomeline High Dose",
    "ARMCD": "Xan_Hi",
    "ACTARM": "Xanomeline High Dose",
    "ACTARMCD": "Xan_Hi",
    "RFSTDTC": "2013-06-19",
    "RFENDTC": "2013-12-19",
    "DTHDTC": "",
    "DTHFL": null,
    "COUNTRY": "USA",
    "TRT01P": "Xanomeline High Dose",
    "TRT01A": "Xanomeline High Dose",
    "TRT01PN": 2,
    "TRT01AN": 2,
    "AGEGR1": "65-80",
    "AGEGR1N": 2,
    "RACEN": 1,
    "TRTSDT": "2013-06-19",
    "TRTEDT": "2013-12-19",
    "TRTDUR": 184,
    "EOSSTT": "COMPLETED",
    "DCSREAS": null,
    "DISDT": "2013-12-19",
    "COMP16FL": "Y",
    "COMP24FL": "Y",
    "COMP8FL": "Y",
    "EFFFL": "Y",
    "ITTFL": "Y",
    "SAFFL": "Y",
    "EDUCLVL": 16,
    "MMSETOT": null,
    "DISONSDT": "2009-12-21",
    "DURDIS": 41.5934,
    "DURDSGR1": ">=12",
    "WEIGHTBL": 78.47,
    "HEIGHTBL": null,
    "BMIBL": null,
    "BMIBLGR1": null,
    "DTHDT": null,
    "SITEGR1": "709"
  },
  {
    "STUDYID": "CDISCPILOT01",
    "USUBJID": "01-709-1312",
    "SUBJID": "1312",
    "SITEID": "709",
    "AGE": 68,
    "AGEU": "YEARS",
    "SEX": "F",
    "RACE": "WHITE",
    "ETHNIC": "NOT HISPANIC OR LATINO",
    "ARM": "Placebo",
    "ARMCD": "Pbo",
    "ACTARM": "Placebo",
    "ACTARMCD": "Pbo",
    "RFSTDTC": "2014-04-20",
    "RFENDTC": "2014-10-19",
    "DTHDTC": "",
    "DTHFL": null,
    "COUNTRY": "USA",
    "TRT01P": "Placebo",
    "TRT01A": "Placebo",
    "TRT01PN": 0,
    "TRT01AN": 0,
    "AGEGR1": "65-80",
    "AGEGR1N": 2,
    "RACEN": 1,
    "TRTSDT": "2014-04-20",
    "TRTEDT": "2014-10-19",
    "TRTDUR": 183,
    "EOSSTT": "COMPLETED",
    "DCSREAS": null,
    "DISDT": "2014-10-19",
    "COMP16FL": "Y",
    "COMP24FL": "Y",
    "COMP8FL": "Y",
    "EFFFL": "Y",
    "ITTFL": "Y",
    "SAFFL": "Y",
    "EDUCLVL": 13,
    "MMSETOT": null,
    "DISONSDT": "2010-07-30",
    "DURDIS": 44.4517,
    "DURDSGR1": ">=12",
    "WEIGHTBL": 53.52,
    "HEIGHTBL": null,
    "BMIBL": null,
    "BMIBLGR1": null,
    "DTHDT": null,
    "SITEGR1": "709"
  },
  {
    "STUDYID": "CDISCPILOT01",
    "USUBJID": "01-709-1326",
    "SUBJID": "1326",
    "SITEID": "709",
    "AGE": 75,
    "AGEU": "YEARS",
    "SEX": "F",
    "RACE": "WHITE",
    "ETHNIC": "NOT HISPANIC OR LATINO",
    "ARM": "Xanomeline Low Dose",
    "ARMCD": "Xan_Lo",
    "ACTARM": "Xanomeline Low Dose",
    "ACTARMCD": "Xan_Lo",
    "RFSTDTC": "2013-04-05",
    "RFENDTC": "2013-10-02",
    "DTHDTC": "",
    "DTHFL": null,
    "COUNTRY": "USA",
    "TRT01P": "Xanomeline Low Dose",
    "TRT01A": "Xanomeline Low Dose",
    "TRT01PN": 1,
    "TRT01AN": 1,
    "AGEGR1": "65-80",
    "AGEGR1N": 2,
    "RACEN": 1,
    "TRTSDT": "2013-04-05",
    "TRTEDT": "2013-10-02",
    "TRTDUR": 181,
    "EOSSTT": "COMPLETED",
    "DCSREAS": null,
    "DISDT": "2013-10-02",
    "COMP16FL": "Y",
    "COMP24FL": "Y",
    "COMP8FL": "Y",
    "EFFFL": "Y",
    "ITTFL": "Y",
    "SAFFL": "Y",
    "EDUCLVL": 16,
    "MMSETOT": null,
    "DISONSDT": "2010-09-19",
    "DURDIS": 30.0287,
    "DURDSGR1": ">=12",
    "WEIGHTBL": 74.84,
    "HEIGHTBL": null,
    "BMIBL": null,
    "BMIBLGR1": null,
    "DTHDT": null,
    "SITEGR1": "709"
  },
  {
    "STUDYID": "CDISCPILOT01",
    "USUBJID": "01-709-1329",
    "SUBJID": "1329",
    "SITEID": "709",
    "AGE": 70,
    "AGEU": "YEARS",
    "SEX": "M",
    "RACE": "WHITE",
    "ETHNIC": "NOT HISPANIC OR LATINO",
    "ARM": "Xanomeline High Dose",
    "ARMCD": "Xan_Hi",
    "ACTARM": "Xanomeline Low Dose",
    "ACTARMCD": "Xan_Lo",
    "RFSTDTC": "2013-08-15",
    "RFENDTC": "2013-08-29",
    "DTHDTC": "",
    "DTHFL": null,
    "COUNTRY": "USA",
    "TRT01P": "Xanomeline High Dose",
