{
  "studyId": "NCT04556760",
  "cdashigVersion": "2-3",
  "ctPackage": "sdtmct-2026-03-27",
  "domains": {
    "DM": {
      "label": "DM",
      "sourceActivities": [
        {
          "activityId": "ACT_DM",
          "activityName": "Demography",
          "bcNcit": null,
          "protocolPage": 20
        }
      ],
      "fieldCount": 14,
      "fields": [
        {
          "name": "STUDYID",
          "label": "Study Identifier",
          "order": "1",
          "core": "HR",
          "dataType": "Char",
          "prompt": "[Protocol/Study]",
          "questionText": "What is the study identifier?",
          "definition": "A unique identifier for a study.",
          "codelistNcit": null,
          "codelistName": null,
          "sdtmTarget": "STUDYID"
        },
        {
          "name": "SITEID",
          "label": "Study Site Identifier",
          "order": "2",
          "core": "HR",
          "dataType": "Char",
          "prompt": "Site (Identifier)",
          "questionText": "What is the site identifier?",
          "definition": "A unique identifier for a site within a study.",
          "codelistNcit": null,
          "codelistName": null,
          "sdtmTarget": "SITEID"
        },
        {
          "name": "SUBJID",
          "label": "Subject Identifier for the Study",
          "order": "3",
          "core": "HR",
          "dataType": "Char",
          "prompt": "[Subject/Participant] (Identifier)",
          "questionText": "What [is/was] the (study) [subject/participant] identifier?",
          "definition": "A unique subject identifier within a site and a study.",
          "codelistNcit": null,
          "codelistName": null,
          "sdtmTarget": "SUBJID"
        },
        {
          "name": "BRTHDAT",
          "label": "Birth Date",
          "order": "4",
          "core": "R/C",
          "dataType": "Char",
          "prompt": "Birth Date",
          "questionText": "What is the subject's date of birth?",
          "definition": "A subject's date of birth (with or without the time of birth). The complete Date of Birth is made from the temporal components of Birth Year, Birth Month, Birth Day, and Birth Time..",
          "codelistNcit": null,
          "codelistName": null,
          "sdtmTarget": "BRTHDTC"
        },
        {
          "name": "BRTHTIM",
          "label": "Birth Time",
          "order": "5",
          "core": "O",
          "dataType": "Char",
          "prompt": "Birth Time",
          "questionText": "What is the subject's time of birth?",
          "definition": "The time of birth of the subject, in an unambiguous time format (e.g., hh:mm).",
          "codelistNcit": null,
          "codelistName": null,
          "sdtmTarget": "BRTHDTC"
        },
        {
          "name": "AGE",
          "label": "Age",
          "order": "6",
          "core": "O",
          "dataType": "Num",
          "prompt": "Age",
          "questionText": "What is the subject's age?",
          "definition": "The age of the subject, expressed in AGEU.",
          "codelistNcit": null,
          "codelistName": null,
          "sdtmTarget": "AGE"
        },
        {
          "name": "AGEU",
          "label": "Age Units",
          "order": "7",
          "core": "O",
          "dataType": "Char",
          "prompt": "Age Unit",
          "questionText": "What is the age unit used?",
          "definition": "Units of time that are routinely used to express the age of a person",
          "codelistNcit": "C66781",
          "codelistName": "Age Unit",
          "sdtmTarget": "AGEU"
        },
        {
          "name": "DMDAT",
          "label": "Demographics Collection Date",
          "order": "8",
          "core": "R/C",
          "dataType": "Char",
          "prompt": "Collection Date",
          "questionText": "What is the date of collection?",
          "definition": "The date of collection, represented in an unambiguous date format (e.g., DD-MON-YYYY).",
          "codelistNcit": null,
          "codelistName": null,
          "sdtmTarget": "DMDTC"
        },
        {
          "name": "SEX",
          "label": "Sex",
          "order": "9",
          "core": "R/C",
          "dataType": "Char",
          "prompt": "Sex",
          "questionText": "What is the sex of the subject?",
          "definition": "Sex of the subject, as determined by the investigator.",
          "codelistNcit": "C66731",
          "codelistName": "Sex",
          "sdtmTarget": "SEX"
        },
        {
          "name": "ETHNIC",
          "label": "Ethnicity",
          "order": "10",
          "core": "O",
          "dataType": "Char",
          "prompt": "Ethnicity",
          "questionText": "Do you consider yourself Hispanic/Latino or not Hispanic/Latino?",
          "definition": "A social group characterized by a distinctive social and cultural tradition maintained from generation to generation, a common history and origin and a sense of identification with the group; members of the group have distinctive features in their way of life, shared experiences and often a common g",
          "codelistNcit": "C66790",
          "codelistName": null,
          "sdtmTarget": "ETHNIC"
        },
        {
          "name": "CETHNIC",
          "label": "Collected Ethnicity",
          "order": "11",
          "core": "O",
          "dataType": "Char",
          "prompt": "Ethnicity",
          "questionText": "What is the ethnicity of the subject?",
          "definition": "A social group characterized by a distinctive social and cultural tradition maintained from generation to generation, a common history and origin and a sense of identification with the group; members of the group have distinctive features in their way of life, shared experiences, and often a common ",
          "codelistNcit": "C128690",
          "codelistName": "Ethnicity As Collected",
          "sdtmTarget": "QVAL"
        },
        {
          "name": "RACE",
          "label": "Race",
          "order": "12",
          "core": "R/C",
          "dataType": "Char",
          "prompt": "Race",
          "questionText": "Which of the following five racial designations best describes you? (More than one choice is acceptable.)",
          "definition": "An arbitrary classification based on physical characteristics; a group of persons related by common descent or heredity (US Center for Disease Control).",
          "codelistNcit": "C74457",
          "codelistName": null,
          "sdtmTarget": "RACE"
        },
        {
          "name": "CRACE",
          "label": "Collected Race",
          "order": "13",
          "core": "R/C",
          "dataType": "Char",
          "prompt": "Race",
          "questionText": "Which of the following racial designations best describes you? (More than one choice is acceptable.)",
          "definition": "An arbitrary classification based on physical characteristics; a group of persons related by common descent or heredity (US Centers for Disease Control).",
          "codelistNcit": "C128689",
          "codelistName": "Race As Collected",
          "sdtmTarget": "QVAL"
        },
        {
          "name": "RACEOTH",
          "label": "Race Other",
          "order": "14",
          "core": "O",
          "dataType": "Char",
          "prompt": "Specify Other Race",
          "questionText": "What was the other race?",
          "definition": "A free-text field to be used when none of the preprinted values for RACE are applicable or if another, unprinted selection should be added to those preprinted values.",
          "codelistNcit": null,
          "codelistName": null,
          "sdtmTarget": "QVAL"
        }
      ]
    },
    "IE": {
      "label": "IE",
      "sourceActivities": [
        {
          "activityId": "ACT_IC",
          "activityName": "Informed consent",
          "bcNcit": null,
          "protocolPage": 20
        },
        {
          "activityId": "ACT_ELIG",
          "activityName": "Verify eligibility criteria",
          "bcNcit": null,
          "protocolPage": 20
        }
      ],
      "fieldCount": 12,
      "fields": [
        {
          "name": "STUDYID",
          "label": "Study Identifier",
          "order": "1",
          "core": "HR",
          "dataType": "Char",
          "prompt": "[Protocol/Study]",
          "questionText": "What is the study identifier?",
          "definition": "A unique identifier for a study.",
          "codelistNcit": null,
          "codelistName": null,
          "sdtmTarget": "STUDYID"
        },
        {
          "name": "SITEID",
          "label": "Study Site Identifier",
          "order": "2",
          "core": "HR",
          "dataType": "Char",
          "prompt": "Site (Identifier)",
          "questionText": "What is the site identifier?",
          "definition": "A unique identifier for a site within a study.",
          "codelistNcit": null,
          "codelistName": null,
          "sdtmTarget": "SITEID"
        },
        {
          "name": "SUBJID",
          "label": "Subject Identifier for the Study",
          "order": "3",
          "core": "HR",
          "dataType": "Char",
          "prompt": "[Subject/Participant] (Identifier)",
          "questionText": "What [is/was] the (study) [subject/participant] identifier?",
          "definition": "A unique subject identifier within a site and a study.",
          "codelistNcit": null,
          "codelistName": null,
          "sdtmTarget": "SUBJID"
        },
        {
          "name": "VISIT",
          "label": "Visit Name",
          "order": "4",
          "core": "R/C",
          "dataType": "Char",
          "prompt": "[Visit]",
          "questionText": "What is the visit name?",
          "definition": "The name of a clinical encounter that encompasses planned and unplanned trial interventions, procedures, and assessments that may be performed on a subject.",
          "codelistNcit": null,
          "codelistName": null,
          "sdtmTarget": "VISIT"
        },
        {
          "name": "VISDAT",
          "label": "Visit Date",
          "order": "5",
          "core": "R/C",
          "dataType": "Char",
          "prompt": "(Visit) Date",
          "questionText": "What [is/was] the date of the visit?",
          "definition": "Date the clinical encounter occurred (or started).",
          "codelistNcit": null,
          "codelistName": null,
          "sdtmTarget": null
        },
        {
          "name": "IEYN",
          "label": "Any Incl/Excl Criteria Findings",
          "order": "6",
          "core": "HR",
          "dataType": "Char",
          "prompt": "Met Criteria",
          "questionText": "Were all eligibility criteria met?",
          "definition": "Indication whether the subject met all the eligibility requirements for this study at the time the subject was enrolled.",
          "codelistNcit": "C66742",
          "codelistName": "No Yes Response",
          "sdtmTarget": null
        },
        {
          "name": "IEDAT",
          "label": "Inclusion/Exclusion Collection Date",
          "order": "7",
          "core": "O",
          "dataType": "Char",
          "prompt": "Date",
          "questionText": "What was the date the eligibility criteria assessment was performed?",
          "definition": "The date of collection of the inclusion/exclusion criteria represented in an unambiguous date format (e.g., DD-MON-YYYY).",
          "codelistNcit": null,
          "codelistName": null,
          "sdtmTarget": "IEDTC"
        },
        {
          "name": "IECAT",
          "label": "Inclusion/Exclusion Category",
          "order": "8",
          "core": "R/C",
          "dataType": "Char",
          "prompt": "Criterion Type",
          "questionText": "What was the category of the criterion?",
          "definition": "A grouping category to denote whether the protocol entry criterion being assessed is inclusion criteria or exclusion criteria.",
          "codelistNcit": "C66797",
          "codelistName": "Category of Inclusion/Exclusion",
          "sdtmTarget": "IECAT"
        },
        {
          "name": "IESCAT",
          "label": "Inclusion/Exclusion Subcategory",
          "order": "9",
          "core": "O",
          "dataType": "Char",
          "prompt": "[Criterion Subtype]; NULL",
          "questionText": "What was the subcategory of the criterion?",
          "definition": "A sub-division of the IECAT values based on user-defined characteristics.",
          "codelistNcit": null,
          "codelistName": null,
          "sdtmTarget": "IESCAT"
        },
        {
          "name": "IETESTCD",
          "label": "Inclusion/Exclusion Criterion Short Name",
          "order": "10",
          "core": "HR",
          "dataType": "Char",
          "prompt": "Exception Criterion Identifier",
          "questionText": "What was the identifier of the inclusion criterion the subject did not meet or the exclusion criterion the subject met?",
          "definition": "The unique identifier associated with the criterion that was the exception.",
          "codelistNcit": null,
          "codelistName": null,
          "sdtmTarget": "IETESTCD"
        },
        {
          "name": "IETEST",
          "label": "Inclusion/Exclusion Criterion",
          "order": "11",
          "core": "O",
          "dataType": "Char",
          "prompt": "Exception Criterion Description",
          "questionText": "What was the description of the inclusion criterion the subject did not meet or the exclusion criterion the subject met?",
          "definition": "Descriptive name of the inclusion or exclusion criterion that was the exception.",
          "codelistNcit": null,
          "codelistName": null,
          "sdtmTarget": "IETEST"
        },
        {
          "name": "IEORRES",
          "label": "I/E Criterion Original Result",
          "order": "12",
          "core": "HR",
          "dataType": "Char",
          "prompt": "(Result)",
          "questionText": "What is the result?",
          "definition": "An indication of which inclusion criterion was not met or exclusion criterion was met.",
          "codelistNcit": "C66742",
          "codelistName": "No Yes Response",
          "sdtmTarget": "IEORRES"
        }
      ]
    },
    "MH": {
      "label": "MH",
      "sourceActivities": [
        {
          "activityId": "ACT_MH",
          "activityName": "Medical History",
          "bcNcit": null,
          "protocolPage": 20
        }
      ],
      "fieldCount": 32,
      "fields": [
        {
          "name": "STUDYID",
          "label": "Study Identifier",
          "order": "1",
          "core": "HR",
          "dataType": "Char",
          "prompt": "[Protocol/Study]",
          "questionText": "What is the study identifier?",
          "definition": "A unique identifier for a study.",
          "codelistNcit": null,
          "codelistName": null,
          "sdtmTarget": "STUDYID"
        },
        {
          "name": "SITEID",
          "label": "Study Site Identifier",
          "order": "2",
          "core": "HR",
          "dataType": "Char",
          "prompt": "Site (Identifier)",
          "questionText": "What is the site identifier?",
          "definition": "A unique identifier for a site within a study.",
          "codelistNcit": null,
          "codelistName": null,
          "sdtmTarget": "SITEID"
        },
        {
          "name": "SUBJID",
          "label": "Subject Identifier for the Study",
          "order": "3",
          "core": "HR",
          "dataType": "Char",
          "prompt": "[Subject/Participant] (Identifier)",
          "questionText": "What [is/was] the (study) [subject/participant] identifier?",
          "definition": "A unique subject identifier within a site and a study.",
          "codelistNcit": null,
          "codelistName": null,
          "sdtmTarget": "SUBJID"
        },
        {
          "name": "MHYN",
          "label": "Any Medical History Event",
          "order": "4",
          "core": "O",
          "dataType": "Char",
          "prompt": "Any Medical History",
          "questionText": "Were any medical conditions or events reported?; Has the subject had any medical conditions or events?",
          "definition": "An indication of whether there was any medical history to report.",
          "codelistNcit": "C66742",
          "codelistName": "No Yes Response",
          "sdtmTarget": null
        },
        {
          "name": "MHCAT",
          "label": "Category for Medical History",
          "order": "5",
          "core": "R/C",
          "dataType": "Char",
          "prompt": "[Medical History Category]; NULL",
          "questionText": "What was the category of the medical history?",
          "definition": "A grouping of topic-variable values based on user-defined characteristics.",
          "codelistNcit": null,
          "codelistName": null,
          "sdtmTarget": "MHCAT"
        },
        {
          "name": "MHSCAT",
          "label": "Subcategory for Medical History",
          "order": "6",
          "core": "O",
          "dataType": "Char",
          "prompt": "[Medical History Subcategory]; NULL",
          "questionText": "What was the subcategory of the medical history?",
          "definition": "A sub-division of the MHCAT values based on user-defined characteristics.",
          "codelistNcit": null,
          "codelistName": null,
          "sdtmTarget": "MHSCAT"
        },
        {
          "name": "MHDAT",
          "label": "Medical History Collection Date",
          "order": "7",
          "core": "O",
          "dataType": "Char",
          "prompt": "Collection Date",
          "questionText": "What was the date the medical history was collected?",
          "definition": "The date on which the medical history was collected, represented in an unambiguous date format (e.g., DD-MON-YYYY).",
          "codelistNcit": null,
          "codelistName": null,
          "sdtmTarget": "MHDTC"
        },
        {
          "name": "MHSPID",
          "label": "MH Sponsor-Defined Identifier",
          "order": "8",
          "core": "O",
          "dataType": "Char",
          "prompt": "[Sponsor defined]",
          "questionText": "[Sponsor-defined question]",
          "definition": "A sponsor-defined identifier. In CDASH, this is typically used for preprinted or auto-generated numbers on the CRF, or any other type of identifier that does not already have a defined CDASH identifier field.",
          "codelistNcit": null,
          "codelistName": null,
          "sdtmTarget": "MHSPID"
        },
        {
          "name": "MHEVDTYP",
          "label": "Medical History Event Date Type",
          "order": "9",
          "core": "O",
          "dataType": "Char",
          "prompt": "Medical History Event Date Type",
          "questionText": "What was the medical history event date type?",
          "definition": "Specifies the aspect of the medical condition or event by which MHSTDTC and/or MHENDTC is defined.",
          "codelistNcit": "C124301",
          "codelistName": "Medical History Event Date Type",
          "sdtmTarget": "MHEVDTYP"
        },
        {
          "name": "MHTERM",
          "label": "Reported Term for the Medical History",
          "order": "10",
          "core": "HR",
          "dataType": "Char",
          "prompt": "Medical History Term",
          "questionText": "What is the medical condition or event term?",
          "definition": "The reported or prespecified name of the medical condition or event.",
          "codelistNcit": null,
          "codelistName": null,
          "sdtmTarget": "MHTERM"
        },
        {
          "name": "MHOCCUR",
          "label": "Medical History Occurrence",
          "order": "11",
          "core": "O",
          "dataType": "Char",
          "prompt": "[Medical condition/Event]",
          "questionText": "Did the subject have [prespecified medical condition/event/group of medical conditions]; Is the [prespecified medical occurring]?",
          "definition": "An indication of whether a prespecified medical condition/event or a group of medical conditions/events occurred when information about the occurrence of a specific event is solicited.",
          "codelistNcit": "C66742",
          "codelistName": "No Yes Response",
          "sdtmTarget": "MHOCCUR"
        },
        {
          "name": "MHPRESP",
          "label": "Medical History Event Prespecified",
          "order": "12",
          "core": "O",
          "dataType": "Char",
          "prompt": null,
          "questionText": null,
          "definition": "An indication that a specific event, or group of events, are prespecified on a CRF.",
          "codelistNcit": "C66742",
          "codelistName": "No Yes Response",
          "sdtmTarget": "MHPRESP"
        },
        {
          "name": "MHPRIOR",
          "label": "Prior Medical History Event",
          "order": "13",
          "core": "O",
          "dataType": "Char",
          "prompt": "Prior to [MHSTTPT]; Prior to Study",
          "questionText": "Did the medical condition or event start prior to [MHSTTPT]?; Did the medical condition or event start prior to study start?",
          "definition": "An indication of whether the event occurred prior to study start.",
          "codelistNcit": "C66742",
          "codelistName": "No Yes Response",
          "sdtmTarget": null
        },
        {
          "name": "MHONGO",
          "label": "Ongoing Medical History Event",
          "order": "14",
          "core": "O",
          "dataType": "Char",
          "prompt": "Ongoing (as of the [study-specific timepoint or period])",
          "questionText": "Is the medical condition or event ongoing (as of the [study-specific timepoint or period])?",
          "definition": "Indication the medical condition or event is ongoing when no end date is provided.",
          "codelistNcit": "C66742",
          "codelistName": "No Yes Response",
          "sdtmTarget": "MHENRF"
        },
        {
          "name": "MHCTRL",
          "label": "MH Disease or Symptom Under Control",
          "order": "15",
          "core": "O",
          "dataType": "Char",
          "prompt": "Medical Condition Under Control",
          "questionText": "Is the medical condition or event under control?",
          "definition": "Indication of whether the medical condition or event is under control at the time of data collection.",
          "codelistNcit": "C66742",
          "codelistName": "No Yes Response",
          "sdtmTarget": "QVAL"
        },
        {
          "name": "MHSTDAT",
          "label": "Medical History Event Start Date",
          "order": "16",
          "core": "O",
          "dataType": "Char",
          "prompt": "Start Date",
          "questionText": "What [is/was] the [medical event or condition/category of the event] start date?",
          "definition": "The start date of medical history event or condition, represented in an unambiguous date format (e.g., DD-MON-YYYY).",
          "codelistNcit": null,
          "codelistName": null,
          "sdtmTarget": "MHSTDTC"
        },
        {
          "name": "MHENDAT",
          "label": "Medical History Event End Date",
          "order": "17",
          "core": "O",
          "dataType": "Char",
          "prompt": "End Date",
          "questionText": "What[is/was] the[medical event or condition/category of the event] end date?",
          "definition": "The end date of medical history event or condition, represented in an unambiguous date format (e.g., DD-MON-YYYY).",
          "codelistNcit": null,
          "codelistName": null,
          "sdtmTarget": "MHENDTC"
        },
        {
          "name": "MHLOC",
          "label": "Medical History Event Location",
          "order": "18",
          "core": "O",
          "dataType": "Char",
          "prompt": "Anatomical Location",
          "questionText": "What was the anatomical location of the medical condition or event?",
          "definition": "A description of the anatomical location relevant for the medical condition or event.",
          "codelistNcit": "C74456",
          "codelistName": "Anatomical Location",
          "sdtmTarget": null
        },
        {
          "name": "MHLAT",
          "label": "Medical History Event Laterality",
          "order": "19",
          "core": "O",
          "dataType": "Char",
          "prompt": "Side",
          "questionText": "What was the side of the anatomical location of the medical condition or event?",
          "definition": "Qualifier for anatomical location, further detailing the side of the body relevant for the event.",
          "codelistNcit": "C99073",
          "codelistName": "Laterality",
          "sdtmTarget": null
        },
        {
          "name": "MHDIR",
          "label": "Medical History Directionality",
          "order": "20",
          "core": "O",
          "dataType": "Char",
          "prompt": "Directionality",
          "questionText": "What was the directionality of the anatomical location of the medical condition or event?",
          "definition": "Qualifier further detailing the position of the anatomical location, relative to the center of the body, organ, or specimen.",
          "codelistNcit": "C99074",
          "codelistName": "Directionality",
          "sdtmTarget": null
        },
        {
          "name": "MHPORTOT",
          "label": "MH Event Location Portion or Totality",
          "order": "21",
          "core": "O",
          "dataType": "Char",
          "prompt": "Portion or Totality",
          "questionText": "What was the portion or totality of the anatomical location of the of the medical condition or event?",
          "definition": "Qualifier for anatomical location, further detailing the distribution (i.e., arrangement of, apportioning of).",
          "codelistNcit": "C99075",
          "codelistName": "Portion/Totality",
          "sdtmTarget": null
        },
        {
          "name": "MHMODIFY",
          "label": "MH Modified Reported Term",
          "order": "22",
          "core": "O",
          "dataType": "Char",
          "prompt": null,
          "questionText": null,
          "definition": "If the value for MHTERM is modified to facilitate coding, then MHMODIFY will contain the modified text.",
          "codelistNcit": null,
          "codelistName": null,
          "sdtmTarget": "MHMODIFY"
        },
        {
          "name": "MHDECOD",
          "label": "MH Dictionary-Derived Term",
          "order": "23",
          "core": "O",
          "dataType": "Char",
          "prompt": null,
          "questionText": null,
          "definition": "The dictionary text description of MHTERM or the modified topic variable (MH MODIFY), if applicable.",
          "codelistNcit": null,
          "codelistName": null,
          "sdtmTarget": "MHDECOD"
        },
        {
          "name": "MHLLT",
          "label": "Medical History Event Lowest Level Term",
          "order": "24",
          "core": "O",
          "dataType": "Char",
          "prompt": null,
          "questionText": null,
          "definition": "The dictionary-derived text description of the lowest level term.",
          "codelistNcit": null,
          "codelistName": null,
          "sdtmTarget": null
        },
        {
          "name": "MHLLTCD",
          "label": "MH Event Lowest Level Term Code",
          "order": "25",
          "core": "O",
          "dataType": "Num",
          "prompt": null,
          "questionText": null,
          "definition": "The dictionary-derived code for the lowest level term.",
          "codelistNcit": null,
          "codelistName": null,
          "sdtmTarget": null
        },
        {
          "name": "MHPTCD",
          "label": "MH Event Preferred Term Code",
          "order": "26",
          "core": "O",
          "dataType": "Num",
          "prompt": null,
          "questionText": null,
          "definition": "The dictionary-derived code for the preferred term.",
          "codelistNcit": null,
          "codelistName": null,
          "sdtmTarget": null
        },
        {
          "name": "MHHLT",
          "label": "Medical History Event High Level Term",
          "order": "27",
          "core": "O",
          "dataType": "Char",
          "prompt": null,
          "questionText": null,
          "definition": "The dictionary-derived text description of the high level term for the primary system organ class (SOC).",
          "codelistNcit": null,
          "codelistName": null,
          "sdtmTarget": null
        },
        {
          "name": "MHHLTCD",
          "label": "MH Event High Level Term Code",
          "order": "28",
          "core": "O",
          "dataType": "Num",
          "prompt": null,
          "questionText": null,
          "definition": "The dictionary-derived code for the high level term for the primary system organ class (SOC).",
          "codelistNcit": null,
          "codelistName": null,
          "sdtmTarget": null
        },
        {
          "name": "MHHLGT",
          "label": "MH Event High Level Group Term",
          "order": "29",
          "core": "O",
          "dataType": "Char",
          "prompt": null,
          "questionText": null,
          "definition": "The dictionary-derived text description of the high level group term for the primary system organ class (SOC).",
          "codelistNcit": null,
          "codelistName": null,
          "sdtmTarget": null
        },
        {
          "name": "MHHLGTCD",
          "label": "MH Event High Level Group Term Code",
          "order": "30",
          "core": "O",
          "dataType": "Num",
          "prompt": null,
          "questionText": null,
          "definition": "The dictionary-derived code for the high level group term for the primary system organ class (SOC).",
          "codelistNcit": null,
          "codelistName": null,
          "sdtmTarget": null
        },
        {
          "name": "MHSOC",
          "label": "MH Event Primary System Organ Class",
          "order": "31",
          "core": "O",
          "dataType": "Char",
          "prompt": null,
          "questionText": null,
          "definition": "The dictionary-derived text description of the primary system organ class (SOC).",
          "codelistNcit": null,
          "codelistName": null,
          "sdtmTarget": null
        },
        {
          "name": "MHSOCCD",
          "label": "MH Event Primary System Organ Class Code",
          "order": "32",
          "core": "O",
          "dataType": "Num",
          "prompt": null,
          "questionText": null,
          "definition": "The dictionary-derived code for the primary system organ class (SOC).",
          "codelistNcit": null,
          "codelistName": null,
          "sdtmTarget": null
        }
      ]
    },
    "VS": {
      "label": "VS",
      "sourceActivities": [
        {
          "activityId": "ACT_HTWT",
          "activityName": "Height and weight",
          "bcNcit": "C25347/C25208",
          "protocolPage": 20
        },
        {
          "activityId": "ACT_VS",
          "activityName": "Vital signs (SBP, DBP, pulse, temperature)",
          "bcNcit": "C54706",
          "protocolPage": 20
        }
      ],
      "fieldCount": 22,
      "fields": [
        {
          "name": "STUDYID",
          "label": "Study Identifier",
          "order": "1",
          "core": "HR",
          "dataType": "Char",
          "prompt": "[Protocol/Study]",
          "questionText": "What is the study identifier?",
          "definition": "A unique identifier for a study.",
          "codelistNcit": null,
          "codelistName": null,
          "sdtmTarget": "STUDYID"
        },
        {
          "name": "SITEID",
          "label": "Study Site Identifier",
          "order": "2",
          "core": "HR",
          "dataType": "Char",
          "prompt": "Site (Identifier)",
          "questionText": "What is the site identifier?",
          "definition": "A unique identifier for a site within a study.",
          "codelistNcit": null,
          "codelistName": null,
          "sdtmTarget": "SITEID"
        },
        {
          "name": "SUBJID",
          "label": "Subject Identifier for the Study",
          "order": "3",
          "core": "HR",
          "dataType": "Char",
          "prompt": "Subject",
          "questionText": "What is the subject identifier?",
          "definition": "A unique subject identifier within a site and a study.",
          "codelistNcit": null,
          "codelistName": null,
          "sdtmTarget": "SUBJID"
        },
        {
          "name": "VISIT",
          "label": "Visit Name",
          "order": "4",
          "core": "R/C",
          "dataType": "Char",
          "prompt": "[Visit]",
          "questionText": "What is the visit name?",
          "definition": "The name of a clinical encounter that encompasses planned and unplanned trial interventions, procedures, and assessments that may be performed on a subject.",
          "codelistNcit": null,
          "codelistName": null,
          "sdtmTarget": "VISIT"
        },
        {
          "name": "VISDAT",
          "label": "Visit Date",
          "order": "5",
          "core": "R/C",
          "dataType": "Char",
          "prompt": "(Visit) Date",
          "questionText": "What [is/was] the date of the visit?",
          "definition": "Date the clinical encounter occurred (or started).",
          "codelistNcit": null,
          "codelistName": null,
          "sdtmTarget": null
        },
        {
          "name": "VSPERF",
          "label": "Vital Signs Performed",
          "order": "6",
          "core": "O",
          "dataType": "Char",
          "prompt": "Vital Signs Performed",
          "questionText": "Were vital signs performed?",
          "definition": "An indication of whether a planned vital signs measurement, series of vital signs measurements, tests, or observations was performed.",
          "codelistNcit": "C66742",
          "codelistName": "No Yes Response",
          "sdtmTarget": "VSSTAT"
        },
        {
          "name": "VSDAT",
          "label": "Vital Signs Date",
          "order": "7",
          "core": "R/C",
          "dataType": "Char",
          "prompt": "Date",
          "questionText": "What was the date of the vital signs measurement?",
          "definition": "The date of the vital signs measurement, represented in an unambiguous date format (e.g., DD-MON-YYYY).",
          "codelistNcit": null,
          "codelistName": null,
          "sdtmTarget": "VSDTC"
        },
        {
          "name": "VSTIM",
          "label": "Vital Signs Time",
          "order": "8",
          "core": "R/C",
          "dataType": "Char",
          "prompt": "Time",
          "questionText": "What was the time of the vital signs measurement?",
          "definition": "The time of measurement, represented in an unambiguous time format (e.g., hh:mm:ss).",
          "codelistNcit": null,
          "codelistName": null,
          "sdtmTarget": "VSDTC"
        },
        {
          "name": "VSSPID",
          "label": "Vital Signs Sponsor-Defined Identifier",
          "order": "9",
          "core": "O",
          "dataType": "Char",
          "prompt": "[Sponsor defined]",
          "questionText": "[Sponsor-defined question]",
          "definition": "A sponsor-defined identifier. In CDASH, this is typically used for preprinted or auto-generated numbers on the CRF, or any other type of identifier that does not already have a defined CDASH identifier field.",
          "codelistNcit": null,
          "codelistName": null,
          "sdtmTarget": "VSSPID"
        },
        {
          "name": "VSTPT",
          "label": "Vital Signs Planned Time Point Name",
          "order": "10",
          "core": "R/C",
          "dataType": "Char",
          "prompt": "[Planned Time Point Name]",
          "questionText": "What is the planned time point for this vital signs measurement?",
          "definition": "A text description of planned time points when measurements should be taken, as defined in the protocol.",
          "codelistNcit": null,
          "codelistName": null,
          "sdtmTarget": "VSTPT"
        },
        {
          "name": "VSCAT",
          "label": "Category for Vital Signs",
          "order": "11",
          "core": "O",
          "dataType": "Char",
          "prompt": "[Vital Signs Category]; NULL",
          "questionText": "What was the category of the vital signs?",
          "definition": "A grouping of topic-variable values based on user-defined characteristics.",
          "codelistNcit": null,
          "codelistName": null,
          "sdtmTarget": "VSCAT"
        },
        {
          "name": "VSSCAT",
          "label": "Subcategory for Vital Signs",
          "order": "12",
          "core": "O",
          "dataType": "Char",
          "prompt": "[Vital Signs Subcategory]; NULL",
          "questionText": "What was the subcategory of the vital signs?",
          "definition": "A sub-division of the VSCAT values based on user-defined characteristics.",
          "codelistNcit": null,
          "codelistName": null,
          "sdtmTarget": "VSSCAT"
        },
        {
          "name": "VSREPNUM",
          "label": "Vital Signs Repetition Number",
          "order": "13",
          "core": "O",
          "dataType": "Char",
          "prompt": "Repetition Number",
          "questionText": "What was the repetition number within the time point for this measurement?",
          "definition": "The instance number of a test that is repeated within a given timeframe for the same test. The level of granularity can vary (e.g., within a time point, within a visit).",
          "codelistNcit": null,
          "codelistName": null,
          "sdtmTarget": null
        },
        {
          "name": "VSTEST",
          "label": "Vital Signs Test Name",
          "order": "14",
          "core": "HR",
          "dataType": "Char",
          "prompt": "[Vital Signs Test Name]",
          "questionText": "What is the vital sign test name?",
          "definition": "Descriptive name of the test or examination used to obtain the measurement or finding.",
          "codelistNcit": "C67153",
          "codelistName": "Vital Signs Test Name",
          "sdtmTarget": "VSTEST"
        },
        {
          "name": "VSSTAT",
          "label": "Vital Signs Completion Status",
          "order": "15",
          "core": "O",
          "dataType": "Char",
          "prompt": "Not Done",
          "questionText": "Indicate if the vital signs measurement was not done",
          "definition": "This variable is used to indicate that data are not available, by having the site recording the value as \"Not Done\".",
          "codelistNcit": "C66789",
          "codelistName": "Not Done",
          "sdtmTarget": "VSSTAT"
        },
        {
          "name": "VSORRES",
          "label": "VS Result or Finding in Original Units",
          "order": "16",
          "core": "HR",
          "dataType": "Char",
          "prompt": "(Result)",
          "questionText": "What was the result of the measurement?",
          "definition": "Result of the vital signs measurement as originally received or collected.",
          "codelistNcit": null,
          "codelistName": null,
          "sdtmTarget": "VSORRES"
        },
        {
          "name": "VSORRESU",
          "label": "VS Original Units",
          "order": "17",
          "core": "R/C",
          "dataType": "Char",
          "prompt": "Unit",
          "questionText": "What was the unit of the measurement?",
          "definition": "The unit of the result as originally received or collected.",
          "codelistNcit": "C71620",
          "codelistName": "Unit",
          "sdtmTarget": "VSORRESU"
        },
        {
          "name": "VSCLSIG",
          "label": "Vital Signs Clinical Significance",
          "order": "18",
          "core": "O",
          "dataType": "Char",
          "prompt": "Clinically Significant",
          "questionText": "Was the result clinically significant?",
          "definition": "An indication whether the vital sign result was clinically significant.",
          "codelistNcit": "C66742",
          "codelistName": "No Yes Response",
          "sdtmTarget": "VSCLSIG"
        },
        {
          "name": "VSLOC",
          "label": "Location of Vital Signs Measurement",
          "order": "19",
          "core": "O",
          "dataType": "Char",
          "prompt": "Anatomical Location",
          "questionText": "What was the anatomical location where the measurement was taken?",
          "definition": "A description of the anatomical location of the subject, relevant to the collection of vital signs measurements.",
          "codelistNcit": "C74456",
          "codelistName": "Anatomical Location",
          "sdtmTarget": "VSLOC"
        },
        {
          "name": "VSPOS",
          "label": "Vital Signs Position of Subject",
          "order": "20",
          "core": "R/C",
          "dataType": "Char",
          "prompt": "Position",
          "questionText": "What was the position of the subject during the measurement?",
          "definition": "The position of the subject during a measurement or examination.",
          "codelistNcit": "C71148",
          "codelistName": "Position",
          "sdtmTarget": "VSPOS"
        },
        {
          "name": "VSDIR",
          "label": "Vital Signs Directionality",
          "order": "21",
          "core": "O",
          "dataType": "Char",
          "prompt": "Directionality",
          "questionText": "What was the directionality of the anatomical location of the measurement?",
          "definition": "Qualifier further detailing the position of the anatomical location, relative to the center of the body, organ, or specimen.",
          "codelistNcit": "C99074",
          "codelistName": "Directionality",
          "sdtmTarget": null
        },
        {
          "name": "VSLAT",
          "label": "Vital Signs Laterality",
          "order": "22",
          "core": "O",
          "dataType": "Char",
          "prompt": "Side",
          "questionText": "What was the side of the anatomical location of the vital signs measurement?",
          "definition": "Qualifier for anatomical location, further detailing the side of the body.",
          "codelistNcit": "C99073",
          "codelistName": "Laterality",
          "sdtmTarget": "VSLAT"
        }
      ]
    },
    "EG": {
      "label": "EG",
      "sourceActivities": [
        {
          "activityId": "ACT_ECG",
          "activityName": "Safety ECG (12-lead)",
          "bcNcit": "C71355",
          "protocolPage": 20
        }
      ],
      "fieldCount": 16,
      "fields": [
        {
          "name": "STUDYID",
          "label": "Study Identifier",
          "order": "1",
          "core": "HR",
          "dataType": "Char",
          "prompt": "[Protocol/Study]",
          "questionText": "What is the study identifier?",
          "definition": "A unique identifier for a study.",
          "codelistNcit": null,
          "codelistName": null,
          "sdtmTarget": "STUDYID"
        },
        {
          "name": "SITEID",
          "label": "Study Site Identifier",
          "order": "2",
          "core": "HR",
          "dataType": "Char",
          "prompt": "Site (Identifier)",
          "questionText": "What is the site identifier?",
          "definition": "A unique identifier for a site within a study.",
          "codelistNcit": null,
          "codelistName": null,
          "sdtmTarget": "SITEID"
        },
        {
          "name": "SUBJID",
          "label": "Subject Identifier for the Study",
          "order": "3",
          "core": "HR",
          "dataType": "Char",
          "prompt": "[Subject/Participant] (Identifier)",
          "questionText": "What [is/was] the (study) [subject/participant] identifier?",
          "definition": "A unique subject identifier within a site and a study.",
          "codelistNcit": null,
          "codelistName": null,
          "sdtmTarget": "SUBJID"
        },
        {
          "name": "VISIT",
          "label": "Visit Name",
          "order": "4",
          "core": "R/C",
          "dataType": "Char",
          "prompt": "[Visit]",
          "questionText": "What is the visit name?",
          "definition": "The name of a clinical encounter that encompasses planned and unplanned trial interventions, procedures, and assessments that may be performed on a subject.",
          "codelistNcit": null,
          "codelistName": null,
          "sdtmTarget": "VISIT"
        },
        {
          "name": "VISDAT",
          "label": "Visit Date",
          "order": "5",
          "core": "R/C",
          "dataType": "Char",
          "prompt": "(Visit) Date",
          "questionText": "What [is/was] the date of the visit?",
          "definition": "Date the clinical encounter occurred (or started).",
          "codelistNcit": null,
          "codelistName": null,
          "sdtmTarget": null
        },
        {
          "name": "EGCAT",
          "label": "Category for ECG",
          "order": "6",
          "core": "O",
          "dataType": "Char",
          "prompt": "[ECG Category]; NULL",
          "questionText": "What was the category of the ECG finding?",
          "definition": "A grouping of topic-variable values based on user-defined characteristics.",
          "codelistNcit": null,
          "codelistName": null,
          "sdtmTarget": "EGCAT"
        },
        {
          "name": "EGSCAT",
          "label": "Subcategory for ECG",
          "order": "7",
          "core": "O",
          "dataType": "Char",
          "prompt": "[ECG Subcategory]; NULL",
          "questionText": "What was the subcategory of the ECG finding?",
          "definition": "A sub-division of the EGCAT values based on user-defined characteristics.",
          "codelistNcit": null,
          "codelistName": null,
          "sdtmTarget": "EGSCAT"
        },
        {
          "name": "EGPERF",
          "label": "ECG Performed",
          "order": "8",
          "core": "O",
          "dataType": "Char",
          "prompt": "ECG Performed",
          "questionText": "Was the ECG performed?",
          "definition": "An indication of whether a planned ECG measurement, series of ECG measurements, tests, or observations was performed.",
          "codelistNcit": "C66742",
          "codelistName": "No Yes Response",
          "sdtmTarget": "EGSTAT"
        },
        {
          "name": "EGREPNUM",
          "label": "ECG Repetition Number",
          "order": "9",
          "core": "O",
          "dataType": "Num",
          "prompt": "Repetition number",
          "questionText": "Which repetition of the ECG is this?",
          "definition": "The incidence number of a test that is repeated within a given timeframe for the same test. The level of granularity can vary (e.g., within a timepoint, within a visit; multiple measurements of blood pressure, multiple analyses of a sample).",
          "codelistNcit": null,
          "codelistName": null,
          "sdtmTarget": "EGREPNUM"
        },
        {
          "name": "EGREFID",
          "label": "ECG Reference ID",
          "order": "10",
          "core": "O",
          "dataType": "Char",
          "prompt": "(ECG) [Reference Identifier/Accession Number]",
          "questionText": "What was the (ECG) [reference identifier/accession number]?",
          "definition": "An internal or external identifier of the ECG (e.g., waveform number).",
          "codelistNcit": null,
          "codelistName": null,
          "sdtmTarget": "EGREFID"
        },
        {
          "name": "EGMETHOD",
          "label": "Method of ECG Test",
          "order": "11",
          "core": "O",
          "dataType": "Char",
          "prompt": "Method",
          "questionText": "What was the method used for the ECG?",
          "definition": "Method of the test or examination.",
          "codelistNcit": "C71151",
          "codelistName": "ECG Test Method",
          "sdtmTarget": "EGMETHOD"
        },
        {
          "name": "EGLEAD",
          "label": "ECG Lead Location Used for Measurement",
          "order": "12",
          "core": "O",
          "dataType": "Char",
          "prompt": "Lead Location",
          "questionText": "Which lead location was used for this measurement?",
          "definition": "The lead used for the measurement (e.g., &quot;LEAD I&quot;, &quot;LEAD II&quot;, &quot;LEAD III&quot;, &quot;LEAD rV2&quot;, &quot;LEAD V1&quot;)",
          "codelistNcit": "C90013",
          "codelistName": "ECG Lead",
          "sdtmTarget": "EGLEAD"
        },
        {
          "name": "EGPOS",
          "label": "ECG Position of Subject",
          "order": "13",
          "core": "O",
          "dataType": "Char",
          "prompt": "Position",
          "questionText": "What was the position of the subject during the ECG measurement?",
          "definition": "The position of the subject during the ECG measurement.",
          "codelistNcit": "C71148",
          "codelistName": "Position",
          "sdtmTarget": "EGPOS"
        },
        {
          "name": "EGDAT",
          "label": "ECG Date",
          "order": "14",
          "core": "R/C",
          "dataType": "Char",
          "prompt": "ECG Date",
          "questionText": "What was the date of the ECG?",
          "definition": "The date the ECG was performed, represented in an unambiguous date format (e.g., DD-MON-YYYY).",
          "codelistNcit": null,
          "codelistName": null,
          "sdtmTarget": "EGDTC"
        },
        {
          "name": "EGTPT",
          "label": "ECG Planned Time Point Name",
          "order": "15",
          "core": "R/C",
          "dataType": "Char",
          "prompt": "[Planned Time Point Name]",
          "questionText": "What was the planned time point of the ECG measurement?",
          "definition": "A text description of planned time point when measurements should be taken as defined in the protocol.",
          "codelistNcit": null,
          "codelistName": null,
          "sdtmTarget": "EGTPT"
        },
        {
          "name": "EGTIM",
          "label": "ECG Time",
          "order": "16",
          "core": "R/C",
          "dataType": "Char",
          "prompt": "ECG Time",
          "questionText": "What was the time the ECG was collected?",
          "definition": "Time of ECG, represented in an unambiguous time format (e.g., hh:mm:ss).",
          "codelistNcit": null,
          "codelistName": null,
          "sdtmTarget": "EGDTC"
        }
      ]
    },
    "LB": {
      "label": "LB",
      "sourceActivities": [
        {
          "activityId": "ACT_HEM",
          "activityName": "Haematology",
          "bcNcit": "C28133",
          "protocolPage": 21
        },
        {
          "activityId": "ACT_CHEM",
          "activityName": "Clinical chemistry (incl. triglycerides, HDL-C)",
          "bcNcit": "C49237",
          "protocolPage": 21
        },
        {
          "activityId": "ACT_COAG",
          "activityName": "Coagulation (INR, PT, aPTT)",
          "bcNcit": "C61367",
          "protocolPage": 21
        },
        {
          "activityId": "ACT_HBA1C",
          "activityName": "HbA1c",
          "bcNcit": "C64849",
          "protocolPage": 21
        },
        {
          "activityId": "ACT_MMTT",
          "activityName": "MMTT (glucose, insulin, C-peptide, GLP-1, GIP, glucagon, FFAs)",
          "bcNcit": "C105585",
          "protocolPage": 23
        },
        {
          "activityId": "ACT_CORT",
          "activityName": "Serum cortisol",
          "bcNcit": "C105443",
          "protocolPage": 23
        },
        {
          "activityId": "ACT_UNAK",
          "activityName": "24-h urinary sodium & potassium (U-Na, U-K)",
          "bcNcit": "C147062",
          "protocolPage": 24
        },
        {
          "activityId": "ACT_UA",
          "activityName": "Urinalysis",
          "bcNcit": "C17241",
          "protocolPage": 24
        },
        {
          "activityId": "ACT_PREG",
          "activityName": "Pregnancy test (hCG)",
          "bcNcit": "C25640",
          "protocolPage": 21
        }
      ],
      "fieldCount": 15,
      "fields": [
        {
          "name": "STUDYID",
          "label": "Study Identifier",
          "order": "1",
          "core": "HR",
          "dataType": "Char",
          "prompt": "[Protocol/Study]",
          "questionText": "What is the study identifier?",
          "definition": "A unique identifier for a study.",
          "codelistNcit": null,
          "codelistName": null,
          "sdtmTarget": "STUDYID"
        },
        {
          "name": "SITEID",
          "label": "Study Site Identifier",
          "order": "2",
          "core": "HR",
          "dataType": "Char",
          "prompt": "Site (Identifier)",
          "questionText": "What is the site identifier?",
          "definition": "A unique identifier for a site within a study.",
          "codelistNcit": null,
          "codelistName": null,
          "sdtmTarget": "SITEID"
        },
        {
          "name": "SUBJID",
          "label": "Subject Identifier for the Study",
          "order": "3",
          "core": "HR",
          "dataType": "Char",
          "prompt": "[Subject/Participant] (Identifier)",
          "questionText": "What [is/was] the (study) [subject/participant] identifier?",
          "definition": "A unique subject identifier within a site and a study.",
          "codelistNcit": null,
          "codelistName": null,
          "sdtmTarget": "SUBJID"
        },
        {
          "name": "VISIT",
          "label": "Visit Name",
          "order": "4",
          "core": "R/C",
          "dataType": "Char",
          "prompt": "[Visit]",
          "questionText": "What is the visit name?",
          "definition": "The name of a clinical encounter that encompasses planned and unplanned trial interventions, procedures, and assessments that may be performed on a subject.",
          "codelistNcit": null,
          "codelistName": null,
          "sdtmTarget": "VISIT"
        },
        {
          "name": "VISDAT",
          "label": "Visit Date",
          "order": "5",
          "core": "R/C",
          "dataType": "Char",
          "prompt": "(Visit) Date",
          "questionText": "What [is/was] the date of the visit?",
          "definition": "Date the clinical encounter occurred (or started).",
          "codelistNcit": null,
          "codelistName": null,
          "sdtmTarget": null
        },
        {
          "name": "LBPERF",
          "label": "Lab Performed",
          "order": "6",
          "core": "O",
          "dataType": "Char",
          "prompt": "Lab Performed; Sample Collected",
          "questionText": "Was the sample collected?; Was the lab performed?",
          "definition": "An indication of whether a planned lab measurement, series of lab measurements, tests, observations was performed or specimens collected.",
          "codelistNcit": "C66742",
          "codelistName": "No Yes Response",
          "sdtmTarget": "LBSTAT"
        },
        {
          "name": "LBDAT",
          "label": "Specimen Collection Date",
          "order": "7",
          "core": "R/C",
          "dataType": "Char",
          "prompt": "Specimen Collection (Start) Date",
          "questionText": "What was the (start) date of the lab specimen collection?",
          "definition": "The date of specimen collection, represented in an unambiguous date format (e.g., DD-MON-YYYY).",
          "codelistNcit": null,
          "codelistName": null,
          "sdtmTarget": "LBDTC"
        },
        {
          "name": "LBTIM",
          "label": "Specimen Collection Time",
          "order": "8",
          "core": "R/C",
          "dataType": "Char",
          "prompt": "Specimen Collection (Start) Time",
          "questionText": "What was the (start) time of the lab specimen collection?",
          "definition": "The time of specimen collection, represented in an unambiguous time format (e.g., hh:mm:ss).",
          "codelistNcit": null,
          "codelistName": null,
          "sdtmTarget": "LBDTC"
        },
        {
          "name": "LBCAT",
          "label": "Category for Lab Test",
          "order": "9",
          "core": "R/C",
          "dataType": "Char",
          "prompt": "[Lab Panel Name]; NULL",
          "questionText": "What was the name of the lab panel?",
          "definition": "A grouping of topic-variable values based on user-defined characteristics.",
          "codelistNcit": null,
          "codelistName": null,
          "sdtmTarget": "LBCAT"
        },
        {
          "name": "LBSCAT",
          "label": "Subcategory for Lab Test",
          "order": "10",
          "core": "R/C",
          "dataType": "Char",
          "prompt": "[Lab Sub-Panel Name]; NULL",
          "questionText": "What was the name of the lab sub-panel?",
          "definition": "A sub-division of the LBCAT values based on user-defined characteristics.",
          "codelistNcit": null,
          "codelistName": null,
          "sdtmTarget": "LBSCAT"
        },
        {
          "name": "LBSPEC",
          "label": "LB Specimen Type",
          "order": "11",
          "core": "R/C",
          "dataType": "Char",
          "prompt": "Specimen Type",
          "questionText": "What is the specimen material type?",
          "definition": "The type of sample material taken from a biological entity.",
          "codelistNcit": "C78734",
          "codelistName": "Specimen Type",
          "sdtmTarget": "LBSPEC"
        },
        {
          "name": "LBTPT",
          "label": "Lab Planned Time Point Name",
          "order": "12",
          "core": "R/C",
          "dataType": "Char",
          "prompt": "[Planned Time Point Name]",
          "questionText": "What was the planned time point of the lab?",
          "definition": "A text description of planned time point when measurements should be taken, as defined in the protocol.",
          "codelistNcit": null,
          "codelistName": null,
          "sdtmTarget": "LBTPT"
        },
        {
          "name": "LBCOND",
          "label": "Lab Test Condition Met",
          "order": "13",
          "core": "R/C",
          "dataType": "Char",
          "prompt": "Test Condition Met",
          "questionText": "Were the protocol-defined testing conditions met?",
          "definition": "Indication whether the testing conditions defined in the protocol were met (e.g., low-fat diet).",
          "codelistNcit": "C66742",
          "codelistName": "No Yes Response",
          "sdtmTarget": "QVAL"
        },
        {
          "name": "LBFAST",
          "label": "Lab Fasting Status",
          "order": "14",
          "core": "R/C",
          "dataType": "Char",
          "prompt": "Fasting",
          "questionText": "Was the subject fasting?",
          "definition": "An indication that the subject has abstained from food/water for the specified amount of time.",
          "codelistNcit": "C66742",
          "codelistName": "No Yes Response",
          "sdtmTarget": "LBFAST"
        },
        {
          "name": "LBREFID",
          "label": "Lab Specimen ID",
          "order": "15",
          "core": "R/C",
          "dataType": "Char",
          "prompt": "(Laboratory) [Reference identifier/Accession Number]",
          "questionText": "What was the (laboratory test) [reference identifier/accession number]?",
          "definition": "An internal or external identifier (e.g., specimen identifier).",
          "codelistNcit": null,
          "codelistName": null,
          "sdtmTarget": "LBREFID"
        }
      ]
    },
    "EX": {
      "label": "EX",
      "sourceActivities": [
        {
          "activityId": "ACT_DOSE",
          "activityName": "IMP administration (AZD9567 / prednisolone / placebo)",
          "bcNcit": null,
          "protocolPage": 22
        }
      ],
      "fieldCount": 35,
      "fields": [
        {
          "name": "STUDYID",
          "label": "Study Identifier",
          "order": "1",
          "core": "HR",
          "dataType": "Char",
          "prompt": "[Protocol/Study]",
          "questionText": "What is the study identifier?",
          "definition": "A unique identifier for a study.",
          "codelistNcit": null,
          "codelistName": null,
          "sdtmTarget": "STUDYID"
        },
        {
          "name": "SITEID",
          "label": "Study Site Identifier",
          "order": "2",
          "core": "HR",
          "dataType": "Char",
          "prompt": "Site (Identifier)",
          "questionText": "What is the site identifier?",
          "definition": "A unique identifier for a site within a study.",
          "codelistNcit": null,
          "codelistName": null,
          "sdtmTarget": "SITEID"
        },
        {
          "name": "SUBJID",
          "label": "Subject Identifier for the Study",
          "order": "3",
          "core": "HR",
          "dataType": "Char",
          "prompt": "[Subject/Participant] (Identifier)",
          "questionText": "What [is/was] the (study) [subject/participant] identifier?",
          "definition": "A unique subject identifier within a site and a study.",
          "codelistNcit": null,
          "codelistName": null,
          "sdtmTarget": "SUBJID"
        },
        {
          "name": "EPOCH",
          "label": "Epoch",
          "order": "4",
          "core": "R/C",
          "dataType": "Char",
          "prompt": "[Epoch](Period/Phase/Sponsor-defined phrase)",
          "questionText": "What is the trial epoch?",
          "definition": "Name of the trial epoch with which this element of the arm is associated.",
          "codelistNcit": "C99079",
          "codelistName": "Epoch",
          "sdtmTarget": "EPOCH"
        },
        {
          "name": "EXYN",
          "label": "Any Study Treatment Taken",
          "order": "5",
          "core": "O",
          "dataType": "Char",
          "prompt": "Any Study Treatments",
          "questionText": "Were any[study treatment/dose] taken?",
          "definition": "An indication of whether the subject took study medication/treatment.",
          "codelistNcit": "C66742",
          "codelistName": "No Yes Response",
          "sdtmTarget": null
        },
        {
          "name": "EXCAT",
          "label": "Category of Treatment",
          "order": "6",
          "core": "O",
          "dataType": "Char",
          "prompt": "[Study Treatment Category]; NULL",
          "questionText": "What is the category of the [study treatment/dose] ?",
          "definition": "A grouping of topic-variable values based on user-defined characteristics.",
          "codelistNcit": null,
          "codelistName": null,
          "sdtmTarget": "EXCAT"
        },
        {
          "name": "EXSCAT",
          "label": "Subcategory of Treatment",
          "order": "7",
          "core": "O",
          "dataType": "Char",
          "prompt": "[Study Treatment Subcategory]; NULL",
          "questionText": "What is the subcategory of the [study treatment/dose] ?",
          "definition": "A sub-division of the EXCAT values based on user-defined characteristics.",
          "codelistNcit": null,
          "codelistName": null,
          "sdtmTarget": "EXSCAT"
        },
        {
          "name": "EXTRT",
          "label": "Name of Treatment",
          "order": "8",
          "core": "R/C",
          "dataType": "Char",
          "prompt": "[Study Treatment/Investigational Product Name]",
          "questionText": "What was the [study treatment/investigational product] name?",
          "definition": "Name of the study treatment or intervention given per single administration or during the constant dosing interval for the observation.",
          "codelistNcit": null,
          "codelistName": null,
          "sdtmTarget": "EXTRT"
        },
        {
          "name": "EXREFID",
          "label": "Exposure Reference ID",
          "order": "9",
          "core": "R/C",
          "dataType": "Char",
          "prompt": "Treatment Label Identifier",
          "questionText": "What is the [study treatment/dose] label identifier?",
          "definition": "An internal or external identifier (e.g., kit number, bottle label, vial identifier).",
          "codelistNcit": null,
          "codelistName": null,
          "sdtmTarget": "EXREFID"
        },
        {
          "name": "EXLOT",
          "label": "Lot Number",
          "order": "10",
          "core": "R/C",
          "dataType": "Char",
          "prompt": "Lot Number",
          "questionText": "What was the lot number of the[study treatment/dose] used?",
          "definition": "Lot number of the EXTRT product.",
          "codelistNcit": null,
          "codelistName": null,
          "sdtmTarget": "EXLOT"
        },
        {
          "name": "EXFAST",
          "label": "Exposure Fasting Status",
          "order": "11",
          "core": "O",
          "dataType": "Char",
          "prompt": "Fasting",
          "questionText": "Was the subject fasting?",
          "definition": "An indication that the subject has abstained from food/water for the specified amount of time.",
          "codelistNcit": "C66742",
          "codelistName": "No Yes Response",
          "sdtmTarget": "EXFAST"
        },
        {
          "name": "EXDOSFRM",
          "label": "Exposure Dose Form",
          "order": "12",
          "core": "R/C",
          "dataType": "Char",
          "prompt": "Dose Form",
          "questionText": "What was the dose form of the [study treatment/dose] ?",
          "definition": "The dosage form in which the EXTRT is physically presented.",
          "codelistNcit": "C66726",
          "codelistName": "Dosage Form",
          "sdtmTarget": "EXDOSFRM"
        },
        {
          "name": "EXSTDAT",
          "label": "Exposure Start Date",
          "order": "13",
          "core": "HR",
          "dataType": "Char",
          "prompt": "(Start) Date",
          "questionText": "What was the ([intended/planned/actual]) ([study treatment/dose]) (start) date?",
          "definition": "The start date of study treatment, represented in an unambiguous date format (e.g., DD-MON-YYYY).",
          "codelistNcit": null,
          "codelistName": null,
          "sdtmTarget": "EXSTDTC"
        },
        {
          "name": "EXSTTIM",
          "label": "Exposure Start Time",
          "order": "14",
          "core": "R/C",
          "dataType": "Char",
          "prompt": "(Start) Time",
          "questionText": "What was the ([intended/planned/actual]) ([study treatment/dose]) (start) time?",
          "definition": "The start time of the study treatment, represented in an unambiguous time format (e.g., hh:mm:ss).",
          "codelistNcit": null,
          "codelistName": null,
          "sdtmTarget": "EXSTDTC"
        },
        {
          "name": "EXENDAT",
          "label": "Exposure End Date",
          "order": "15",
          "core": "R/C",
          "dataType": "Char",
          "prompt": "(End) Date",
          "questionText": "What was the ([intended/planned/actual]) ([study treatment/dose]) (end) date?",
          "definition": "The end date of study treatment, represented in an unambiguous date format (e.g., DD-MON-YYYY).",
          "codelistNcit": null,
          "codelistName": null,
          "sdtmTarget": "EXENDTC"
        },
        {
          "name": "EXENTIM",
          "label": "Exposure End Time",
          "order": "16",
          "core": "R/C",
          "dataType": "Char",
          "prompt": "(End) Time",
          "questionText": "What was the ([intended/planned/actual]) ([study treatment/dose]) (end) time?",
          "definition": "The end time of treatment, represented in an unambiguous time format (e.g., hh:mm:ss).",
          "codelistNcit": null,
          "codelistName": null,
          "sdtmTarget": "EXENDTC"
        },
        {
          "name": "EXDSTXT",
          "label": "Exposure Dose Description",
          "order": "17",
          "core": "R/C",
          "dataType": "Char",
          "prompt": "Dose",
          "questionText": "What was the dose [per administration] (of [study treatment/dose]) ?",
          "definition": "Dose (per administration).",
          "codelistNcit": null,
          "codelistName": null,
          "sdtmTarget": "EXDOSTXT"
        },
        {
          "name": "EXDOSU",
          "label": "Exposure Dose Unit",
          "order": "18",
          "core": "R/C",
          "dataType": "Char",
          "prompt": "Unit",
          "questionText": "What was the unit for the dose?",
          "definition": "The unit for intended dose (per administration) for EXDOSE, EXDOSTOT, or EXDOSTXT.",
          "codelistNcit": "C71620",
          "codelistName": "Unit",
          "sdtmTarget": "EXDOSU"
        },
        {
          "name": "EXDOSFRQ",
          "label": "Exposure Dosing Frequency per Interval",
          "order": "19",
          "core": "R/C",
          "dataType": "Char",
          "prompt": "Frequency",
          "questionText": "What was the frequency of[study treatment/dose] dosing?",
          "definition": "The number of doses given/administered/taken during a specific interval.",
          "codelistNcit": "C71113",
          "codelistName": "Frequency",
          "sdtmTarget": "EXDOSFRQ"
        },
        {
          "name": "EXROUTE",
          "label": "Exposure Route of Administration",
          "order": "20",
          "core": "R/C",
          "dataType": "Char",
          "prompt": "Route",
          "questionText": "What was the route of administration (of the [study treatment/dose] )?",
          "definition": "The route of administration of the study treatment.",
          "codelistNcit": "C66729",
          "codelistName": "Route of Administration Response",
          "sdtmTarget": "EXROUTE"
        },
        {
          "name": "EXDOSRGM",
          "label": "Intended Dose Regimen",
          "order": "21",
          "core": "O",
          "dataType": "Char",
          "prompt": "Intended Dose Regimen",
          "questionText": "What was the intended dose regimen (of the [study treatment/dose] )?",
          "definition": "The text description of the intended schedule or regimen for the Intervention.",
          "codelistNcit": null,
          "codelistName": null,
          "sdtmTarget": "EXDOSRGM"
        },
        {
          "name": "EXDOSADJ",
          "label": "Dose Adjusted",
          "order": "22",
          "core": "O",
          "dataType": "Char",
          "prompt": "(Dose) Adjusted",
          "questionText": "Was the dose adjusted?",
          "definition": "An indication of whether the dose was adjusted.",
          "codelistNcit": "C66742",
          "codelistName": "No Yes Response",
          "sdtmTarget": null
        },
        {
          "name": "EXADJ",
          "label": "Reason for Dose Adjustment",
          "order": "23",
          "core": "O",
          "dataType": "Char",
          "prompt": "Reason Adjusted",
          "questionText": "What was the reason the dose was adjusted (from planned)?",
          "definition": "Description of or explanation for why a dose of the study treatment was adjusted.",
          "codelistNcit": null,
          "codelistName": null,
          "sdtmTarget": "EXADJ"
        },
        {
          "name": "EXITRPYN",
          "label": "EX Exposure Interrupted",
          "order": "24",
          "core": "O",
          "dataType": "Char",
          "prompt": "[(Study) Treatment / Dose] Interrupted",
          "questionText": "Was the [ (study) treatment/dose] interrupted?",
          "definition": "An indication of whether the exposure was interrupted.",
          "codelistNcit": "C66742",
          "codelistName": "No Yes Response",
          "sdtmTarget": null
        },
        {
          "name": "EXCINTD",
          "label": "Exposure Interruption Duration",
          "order": "25",
          "core": "O",
          "dataType": "Char",
          "prompt": "(Interruption) Duration",
          "questionText": "If the dose was interrupted, how long was the interruption?",
          "definition": "The collected duration of the treatment interruption.",
          "codelistNcit": null,
          "codelistName": null,
          "sdtmTarget": "QVAL"
        },
        {
          "name": "EXCINTDU",
          "label": "Exposure Interruption Duration Units",
          "order": "26",
          "core": "O",
          "dataType": "Char",
          "prompt": "(Interruption Duration) Unit",
          "questionText": "If the dose was interrupted, what were the units for the interruption duration?",
          "definition": "The unit for the collected duration of treatment interruption.",
          "codelistNcit": "C71620",
          "codelistName": "Unit",
          "sdtmTarget": "QVAL"
        },
        {
          "name": "EXLOC",
          "label": "Exposure Location of Dose Administration",
          "order": "27",
          "core": "O",
          "dataType": "Char",
          "prompt": "Anatomical Location",
          "questionText": "What was the anatomical location of the ([study treatment/dose] ) administration?",
          "definition": "A description of the anatomical location of administration.",
          "codelistNcit": "C74456",
          "codelistName": "Anatomical Location",
          "sdtmTarget": "EXLOC"
        },
        {
          "name": "EXVAMT",
          "label": "Exposure Vehicle Amount",
          "order": "28",
          "core": "O",
          "dataType": "Num",
          "prompt": "Total Amount",
          "questionText": "What was the total amount (Drug + Vehicle)(of [study treatment/dose] ) administered?",
          "definition": "The amount of the prepared product (treatment + vehicle) administered or given.",
          "codelistNcit": null,
          "codelistName": null,
          "sdtmTarget": null
        },
        {
          "name": "EXVAMTU",
          "label": "Exposure Vehicle Amount Units",
          "order": "29",
          "core": "O",
          "dataType": "Char",
          "prompt": "Unit",
          "questionText": "What was the unit for the amount (of [study treatment/dose] ) administered?",
          "definition": "The unit of measure for the prepared product (treatment + vehicle).",
          "codelistNcit": "C71620",
          "codelistName": "Unit",
          "sdtmTarget": null
        },
        {
          "name": "EXFLRT",
          "label": "Exposure Infusion Rate",
          "order": "30",
          "core": "O",
          "dataType": "Num",
          "prompt": "Infusion Rate",
          "questionText": "What was the [study treatment/dose] infusion rate?",
          "definition": "The flow rate for the total amount of drug + vehicle administered to the subject.",
          "codelistNcit": null,
          "codelistName": null,
          "sdtmTarget": "QVAL"
        },
        {
          "name": "EXFLRTU",
          "label": "Exposure Infusion Rate Unit",
          "order": "31",
          "core": "O",
          "dataType": "Char",
          "prompt": "(Infusion Rate) Unit",
          "questionText": "What were the units for the [study treatment/dose] infusion rate?",
          "definition": "The unit of measure for the flow rate for the total amount of drug + vehicle administered to the subject.",
          "codelistNcit": "C71620",
          "codelistName": "Unit",
          "sdtmTarget": "QVAL"
        },
        {
          "name": "EXTPT",
          "label": "Exposure Planned Time Point Name",
          "order": "32",
          "core": "R/C",
          "dataType": "Char",
          "prompt": "[Planned Time Point Name]",
          "questionText": "What was the planned time point for [study treatment/dose] ?",
          "definition": "A text description of the planned time point when measurements should be taken, as defined in the protocol.",
          "codelistNcit": null,
          "codelistName": null,
          "sdtmTarget": "EXTPT"
        },
        {
          "name": "EXTRTCMP",
          "label": "Completed Treatment",
          "order": "33",
          "core": "O",
          "dataType": "Char",
          "prompt": "Completed Treatment",
          "questionText": "Did the subject complete the full course of [study treatment/dose] ?",
          "definition": "Indication of whether the subject completed the intended regimen.",
          "codelistNcit": "C66742",
          "codelistName": "No Yes Response",
          "sdtmTarget": "QVAL"
        },
        {
          "name": "EXLAT",
          "label": "Exposure Laterality",
          "order": "34",
          "core": "O",
          "dataType": "Char",
          "prompt": "Side",
          "questionText": "What was the side of the anatomical location of the ([study treatment/dose] ) administration?",
          "definition": "Qualifier for anatomical location, further detailing side of the body for the study treatment administration.",
          "codelistNcit": "C99073",
          "codelistName": "Laterality",
          "sdtmTarget": "EXLAT"
        },
        {
          "name": "EXDIR",
          "label": "Exposure Directionality",
          "order": "35",
          "core": "O",
          "dataType": "Char",
          "prompt": "Directionality",
          "questionText": "What was the directionality of the anatomical location of the ([study treatment/dose] ) administration?",
          "definition": "Qualifier further detailing the position of the anatomical location, relative to the center of the body, organ, or specimen.",
          "codelistNcit": "C99074",
          "codelistName": "Directionality",
          "sdtmTarget": "EXDIR"
        }
      ]
    },
    "CM": {
      "label": "CM",
      "sourceActivities": [
        {
          "activityId": "ACT_CM",
          "activityName": "Concomitant medication",
          "bcNcit": null,
          "protocolPage": 21
        }
      ],
      "fieldCount": 41,
      "fields": [
        {
          "name": "STUDYID",
          "label": "Study Identifier",
          "order": "1",
          "core": "HR",
          "dataType": "Char",
          "prompt": "[Protocol/Study]",
          "questionText": "What is the study identifier?",
          "definition": "A unique identifier for a study.",
          "codelistNcit": null,
          "codelistName": null,
          "sdtmTarget": "STUDYID"
        },
        {
          "name": "SITEID",
          "label": "Study Site Identifier",
          "order": "2",
          "core": "HR",
          "dataType": "Char",
          "prompt": "Site (Identifier)",
          "questionText": "What is the site identifier?",
          "definition": "A unique identifier for a site within a study.",
          "codelistNcit": null,
          "codelistName": null,
          "sdtmTarget": "SITEID"
        },
        {
          "name": "SUBJID",
          "label": "Subject Identifier for the Study",
          "order": "3",
          "core": "HR",
          "dataType": "Char",
          "prompt": "[Subject/Participant] (Identifier)",
          "questionText": "What [is/was] the (study) [subject/participant] identifier?",
          "definition": "A unique subject identifier within a site and a study.",
          "codelistNcit": null,
          "codelistName": null,
          "sdtmTarget": "SUBJID"
        },
        {
          "name": "CMCAT",
          "label": "Category for Medication",
          "order": "4",
          "core": "O",
          "dataType": "Char",
          "prompt": "(Concomitant) [Medication/Treatment/Therapy Category]; NULL",
          "questionText": "What is the category for the (concomitant) [medication/treatment/therapy]?",
          "definition": "A grouping of topic-variable values based on user-defined characteristics.",
          "codelistNcit": null,
          "codelistName": null,
          "sdtmTarget": "CMCAT"
        },
        {
          "name": "CMSCAT",
          "label": "Subcategory for Medication",
          "order": "5",
          "core": "O",
          "dataType": "Char",
          "prompt": "(Concomitant) [Medication/Treatment/Therapy subcategory]; NULL",
          "questionText": "What is the subcategory for the (concomitant) [medication/treatment/therapy]?",
          "definition": "A sub-division of the CMCAT values based on user-defined characteristics.",
          "codelistNcit": null,
          "codelistName": null,
          "sdtmTarget": "CMSCAT"
        },
        {
          "name": "CMYN",
          "label": "Any Concomitant Medications Taken",
          "order": "6",
          "core": "O",
          "dataType": "Char",
          "prompt": "Any (Concomitant) [Medication(s)/Treatment(s)/Therapy(ies)]",
          "questionText": "Were/Was any (concomitant) [medication(s)/treatment(s)/therapy(ies)] taken?",
          "definition": "An indication of whether any (concomitant) medications/treatments/therapies were taken/given.",
          "codelistNcit": "C66742",
          "codelistName": "No Yes Response",
          "sdtmTarget": null
        },
        {
          "name": "CMSPID",
          "label": "CM Sponsor-Defined Identifier",
          "order": "7",
          "core": "O",
          "dataType": "Char",
          "prompt": "[Sponsor defined]",
          "questionText": "[Sponsor-defined question]",
          "definition": "A sponsor-defined identifier. In CDASH, this is typically used for preprinted or auto-generated numbers on the CRF, or any other type of identifier that does not already have a defined CDASH identifier field.",
          "codelistNcit": null,
          "codelistName": null,
          "sdtmTarget": "CMSPID"
        },
        {
          "name": "CMTRT",
          "label": "Reported Name of Drug, Med, or Therapy",
          "order": "8",
          "core": "HR",
          "dataType": "Char",
          "prompt": "(Concomitant) [Medication/Treatment/Therapy]",
          "questionText": "What was the (concomitant) [medication/treatment/therapy] (name/term)?",
          "definition": "Verbatim medication name or treatments (include only treatments with data collection characteristics similar to medications).",
          "codelistNcit": null,
          "codelistName": null,
          "sdtmTarget": "CMTRT"
        },
        {
          "name": "CMPRESP",
          "label": "CM Prespecified",
          "order": "9",
          "core": "O",
          "dataType": "Char",
          "prompt": null,
          "questionText": null,
          "definition": "An indication that a specific intervention or a group of interventions is prespecified on a CRF.",
          "codelistNcit": "C66742",
          "codelistName": "No Yes Response",
          "sdtmTarget": "CMPRESP"
        },
        {
          "name": "CMOCCUR",
          "label": "CM Occurrence",
          "order": "10",
          "core": "O",
          "dataType": "Char",
          "prompt": "[Specific (Concomitant) [Medication/Treatment/Therapy]",
          "questionText": "Did the subject take [prespecified (concomitant) medication/treatment/therapy/dose]?; Has the subject taken [prespecified (concomitant) medication/treatment/therapy/dose]?",
          "definition": "An indication whether the prespecified medication/treatment/therapy (CMTRT) or the group of medications/treatments/therapies was administered when information about the occurrence of a specific intervention was solicited.",
          "codelistNcit": "C66742",
          "codelistName": "No Yes Response",
          "sdtmTarget": "CMOCCUR"
        },
        {
          "name": "CMINGRD",
          "label": "Concomitant Meds Active Ingredients",
          "order": "11",
          "core": "O",
          "dataType": "Char",
          "prompt": "Active Ingredients",
          "questionText": "What were the active ingredients?",
          "definition": "Medication ingredients.",
          "codelistNcit": null,
          "codelistName": null,
          "sdtmTarget": null
        },
        {
          "name": "CMINDC",
          "label": "CM Indication",
          "order": "12",
          "core": "R/C",
          "dataType": "Char",
          "prompt": "Indication",
          "questionText": "For what indication was the (concomitant) [medication/treatment/therapy] taken?",
          "definition": "The condition, disease, symptom, or disorder that the concomitant (non-study) medication/treatment/therapy was used to address or investigate (e.g., why the medication/treatment/therapy was taken or administered).",
          "codelistNcit": null,
          "codelistName": null,
          "sdtmTarget": "CMINDC"
        },
        {
          "name": "CMAENO",
          "label": "Related Adverse Event ID",
          "order": "13",
          "core": "O",
          "dataType": "Char",
          "prompt": "Adverse Event Identifier",
          "questionText": "What was the identifier for the adverse event(s) for which the (concomitant) [medication/treatment/therapy] was taken?",
          "definition": "Identifier for the adverse event that is the indication for this medication/treatment/therapy.",
          "codelistNcit": null,
          "codelistName": null,
          "sdtmTarget": null
        },
        {
          "name": "CMMHNO",
          "label": "Related Medical History Event ID",
          "order": "14",
          "core": "O",
          "dataType": "Char",
          "prompt": "Medical History Event Identifier",
          "questionText": "What was the identifier for the medical history event(s) for which the (concomitant) [medication/treatment/therapy] was taken?",
          "definition": "Identifier for the medical history condition that is the indication for this medication/treatment/therapy.",
          "codelistNcit": null,
          "codelistName": null,
          "sdtmTarget": null
        },
        {
          "name": "CMDOSE",
          "label": "CM Dose per Administration",
          "order": "15",
          "core": "O",
          "dataType": "Num",
          "prompt": "[Dose/Amount] (per administration)",
          "questionText": "What was the individual dose (of the concomitant [medication/treatment/therapy] per administration)?",
          "definition": "The dose of medication/treatment (e.g., --TRT ) given at one time, represented as a numeric value.",
          "codelistNcit": null,
          "codelistName": null,
          "sdtmTarget": "CMDOSE"
        },
        {
          "name": "CMDSTXT",
          "label": "Concomitant Meds Dose Description",
          "order": "16",
          "core": "O",
          "dataType": "Char",
          "prompt": "Dose",
          "questionText": "What was the individual dose of the (concomitant) [medication/treatment/therapy]?",
          "definition": "The dose of medication/treatment taken per administration.",
          "codelistNcit": null,
          "codelistName": null,
          "sdtmTarget": "CMDOSTXT"
        },
        {
          "name": "CMDOSTOT",
          "label": "CM Total Daily Dose",
          "order": "17",
          "core": "O",
          "dataType": "Num",
          "prompt": "Total Daily Dose",
          "questionText": "What was the total daily dose of the (concomitant) [medication/treatment/therapy]?",
          "definition": "The total amount of CMTRT taken over a day, using the units in CMDOSU.",
          "codelistNcit": null,
          "codelistName": null,
          "sdtmTarget": "CMDOSTOT"
        },
        {
          "name": "CMDOSU",
          "label": "CM Dose Units",
          "order": "18",
          "core": "R/C",
          "dataType": "Char",
          "prompt": "(Dose) Unit",
          "questionText": "What is the unit (for the dose of concomitant [medication/treatment/therapy])?",
          "definition": "The unit associated with the concomitant medication/treatment/therapy taken (e.g., mg in \"2 mg 3 times per day\").",
          "codelistNcit": "C71620",
          "codelistName": "Unit",
          "sdtmTarget": "CMDOSU"
        },
        {
          "name": "CMDOSFRM",
          "label": "CM Dose Form",
          "order": "19",
          "core": "O",
          "dataType": "Char",
          "prompt": "Dose Form",
          "questionText": "What was the dose form of the (concomitant) [medication/treatment/therapy]?",
          "definition": "The pharmaceutical dosage form in which the CMTRT is physically presented.",
          "codelistNcit": "C66726",
          "codelistName": "Dosage Form",
          "sdtmTarget": "CMDOSFRM"
        },
        {
          "name": "CMDOSFRQ",
          "label": "CM Dosing Frequency per Interval",
          "order": "20",
          "core": "O",
          "dataType": "Char",
          "prompt": "Frequency",
          "questionText": "What was the frequency of the (concomitant) [medication/treatment/therapy]?",
          "definition": "The number of doses given/administered/taken during a specific interval.",
          "codelistNcit": "C71113",
          "codelistName": "Frequency",
          "sdtmTarget": "CMDOSFRQ"
        },
        {
          "name": "CMROUTE",
          "label": "CM Route of Administration",
          "order": "21",
          "core": "R/C",
          "dataType": "Char",
          "prompt": "Route",
          "questionText": "What was the route of administration of the (concomitant) [medication/treatment/therapy]?",
          "definition": "The route of administration of the concomitant medication/treatment/therapy.",
          "codelistNcit": "C66729",
          "codelistName": "Route of Administration Response",
          "sdtmTarget": "CMROUTE"
        },
        {
          "name": "CMSTDAT",
          "label": "Concomitant Meds Start Date",
          "order": "22",
          "core": "R/C",
          "dataType": "Char",
          "prompt": "Start Date",
          "questionText": "What was the (concomitant) [medication/treatment/therapy/dose] start date?",
          "definition": "The start date is when the concomitant medication/treatment/therapy was first taken, represented in an unambiguous date format (e.g., DD-MON-YYYY).",
          "codelistNcit": null,
          "codelistName": null,
          "sdtmTarget": "CMSTDTC"
        },
        {
          "name": "CMSTTIM",
          "label": "Concomitant Meds Start Time",
          "order": "23",
          "core": "R/C",
          "dataType": "Char",
          "prompt": "Start Time",
          "questionText": "What was the (concomitant) [medication/treatment/therapy/dose] start time?",
          "definition": "The time the concomitant medication/treatment/therapy was started, represented in an unambiguous time format (e.g., hh:mm:ss).",
          "codelistNcit": null,
          "codelistName": null,
          "sdtmTarget": "CMSTDTC"
        },
        {
          "name": "CMPRIOR",
          "label": "Prior Concomitant Meds",
          "order": "24",
          "core": "O",
          "dataType": "Char",
          "prompt": "Prior to [CMSTTPT]; Prior to Study",
          "questionText": "Was the (concomitant) [medication/treatment/therapy] given/taken prior to [CMSTTPT]?; Was the (concomitant) [medication/treatment/therapy] given/taken prior to study start?",
          "definition": "Indication the concomitant medication/treatment/therapy was given or taken prior to [CMSTTPT] or prior to the date in DM.RFSTDTC.",
          "codelistNcit": "C66742",
          "codelistName": "No Yes Response",
          "sdtmTarget": "CMSTRF"
        },
        {
          "name": "CMONGO",
          "label": "Ongoing Concomitant Meds",
          "order": "25",
          "core": "R/C",
          "dataType": "Char",
          "prompt": "Ongoing (as of [the study-specific time point or period])",
          "questionText": "Was the (concomitant) [medication/treatment/therapy] ongoing (as of [the study-specific time point or period])?",
          "definition": "Indication the concomitant medication/treatment/therapy is ongoing when no end date is provided.",
          "codelistNcit": "C66742",
          "codelistName": "No Yes Response",
          "sdtmTarget": "CMENRF"
        },
        {
          "name": "CMENDAT",
          "label": "Concomitant Meds End Date",
          "order": "26",
          "core": "R/C",
          "dataType": "Char",
          "prompt": "End Date",
          "questionText": "What was the (concomitant) [medication/treatment/therapy/dose] end date?",
          "definition": "The date that the subject ended/stopped taking the concomitant medication/treatment/therapy, represented in an unambiguous date format (e.g., DD-MON-YYYY).",
          "codelistNcit": null,
          "codelistName": null,
          "sdtmTarget": "CMENDTC"
        },
        {
          "name": "CMENTIM",
          "label": "Concomitant Meds End Time",
          "order": "27",
          "core": "R/C",
          "dataType": "Char",
          "prompt": "End Time",
          "questionText": "What was the [medication/treatment/therapy/dose] end time?",
          "definition": "The time when the subject ended/stopped taking the concomitant medication/treatment/therapy, represented in an unambiguous time format (e.g., hh:mm:ss).",
          "codelistNcit": null,
          "codelistName": null,
          "sdtmTarget": "CMENDTC"
        },
        {
          "name": "CMRSDISC",
          "label": "Reason for Treatment Discontinuation",
          "order": "28",
          "core": "O",
          "dataType": "Char",
          "prompt": "Reason for discontinuation of concomitant medication/treatment",
          "questionText": "What was the reason the (concomitant) [medication/treatment/therapy/ --TRT] was [discontinued/stopped/ended]?",
          "definition": "The reason the treatment was discontinued.",
          "codelistNcit": null,
          "codelistName": null,
          "sdtmTarget": "CMRSDISC"
        },
        {
          "name": "CMDECOD",
          "label": "Standardized Medication Name",
          "order": "29",
          "core": "O",
          "dataType": "Char",
          "prompt": null,
          "questionText": null,
          "definition": "The dictionary or sponsor-defined standardized text description of the topic variable, CMTRT, or the modified topic variable (CMMODIFY), if applicable.",
          "codelistNcit": null,
          "codelistName": null,
          "sdtmTarget": "CMDECOD"
        },
        {
          "name": "CMCLAS",
          "label": "CM Medication Class",
          "order": "30",
          "core": "O",
          "dataType": "Char",
          "prompt": null,
          "questionText": null,
          "definition": "The class for the intervention (often obtained from a coding dictionary).",
          "codelistNcit": null,
          "codelistName": null,
          "sdtmTarget": "CMCLAS"
        },
        {
          "name": "CMCLASCD",
          "label": "CM Medication Class Code",
          "order": "31",
          "core": "O",
          "dataType": "Num",
          "prompt": null,
          "questionText": null,
          "definition": "The assigned dictionary code for the class for the intervention.",
          "codelistNcit": null,
          "codelistName": null,
          "sdtmTarget": "CMCLASCD"
        },
        {
          "name": "CMATC1",
          "label": "ATC Level 1 Description",
          "order": "32",
          "core": "O",
          "dataType": "Char",
          "prompt": null,
          "questionText": null,
          "definition": "Dictionary text description of the first level of hierarchy within the Anatomical Therapeutic Chemical (ATC) classification system; indicates the anatomical main group.",
          "codelistNcit": null,
          "codelistName": null,
          "sdtmTarget": "QVAL"
        },
        {
          "name": "CMATC1CD",
          "label": "ATC Level 1 Code",
          "order": "33",
          "core": "O",
          "dataType": "Num",
          "prompt": null,
          "questionText": null,
          "definition": "Dictionary code denoting the first level of hierarchy within the ATC classification system; indicates the anatomical main group.",
          "codelistNcit": null,
          "codelistName": null,
          "sdtmTarget": "QVAL"
        },
        {
          "name": "CMATC2",
          "label": "ATC Level 2 Description",
          "order": "34",
          "core": "O",
          "dataType": "Char",
          "prompt": null,
          "questionText": null,
          "definition": "Dictionary text description for the second level of hierarchy within the ATC classification system; indicates the therapeutic main group.",
          "codelistNcit": null,
          "codelistName": null,
          "sdtmTarget": "QVAL"
        },
        {
          "name": "CMATC2CD",
          "label": "ATC Level 2 Code",
          "order": "35",
          "core": "O",
          "dataType": "Num",
          "prompt": null,
          "questionText": null,
          "definition": "Dictionary code denoting the second level of hierarchy within the ATC classification system; indicates the therapeutic main group.",
          "codelistNcit": null,
          "codelistName": null,
          "sdtmTarget": "QVAL"
        },
        {
          "name": "CMATC3",
          "label": "ATC Level 3 Description",
          "order": "36",
          "core": "O",
          "dataType": "Char",
          "prompt": null,
          "questionText": null,
          "definition": "Dictionary text description of the third level of hierarchy within the ATC classification system; indicates the therapeutic/pharmacological subgroup.",
          "codelistNcit": null,
          "codelistName": null,
          "sdtmTarget": "QVAL"
        },
        {
          "name": "CMATC3CD",
          "label": "ATC Level 3 Code",
          "order": "37",
          "core": "O",
          "dataType": "Num",
          "prompt": null,
          "questionText": null,
          "definition": "Dictionary code denoting the third level of hierarchy within the ATC classification system; indicates the therapeutic/pharmacological subgroup.",
          "codelistNcit": null,
          "codelistName": null,
          "sdtmTarget": "QVAL"
        },
        {
          "name": "CMATC4",
          "label": "ATC Level 4 Description",
          "order": "38",
          "core": "O",
          "dataType": "Char",
          "prompt": null,
          "questionText": null,
          "definition": "Dictionary text description of the fourth level of hierarchy within the ATC classification system; indicates the chemical/therapeutic/pharmacological subgroup.",
          "codelistNcit": null,
          "codelistName": null,
          "sdtmTarget": "QVAL"
        },
        {
          "name": "CMATC4CD",
          "label": "ATC Level 4 Code",
          "order": "39",
          "core": "O",
          "dataType": "Num",
          "prompt": null,
          "questionText": null,
          "definition": "Dictionary code denoting the fourth level of hierarchy within the ATC classification system; indicates the chemical/therapeutic/pharmacological subgroup.",
          "codelistNcit": null,
          "codelistName": null,
          "sdtmTarget": "QVAL"
        },
        {
          "name": "CMATC5",
          "label": "ATC Level 5 Description",
          "order": "40",
          "core": "O",
          "dataType": "Char",
          "prompt": null,
          "questionText": null,
          "definition": "Dictionary text description of the fifth level of hierarchy within the ATC classification system; indicates the chemical substance.",
          "codelistNcit": null,
          "codelistName": null,
          "sdtmTarget": "QVAL"
        },
        {
          "name": "CMATC5CD",
          "label": "ATC Level 5 Code",
          "order": "41",
          "core": "O",
          "dataType": "Num",
          "prompt": null,
          "questionText": null,
          "definition": "Dictionary code denoting the fifth level of hierarchy within the ATC classification system; indicates the chemical substance.",
          "codelistNcit": null,
          "codelistName": null,
          "sdtmTarget": "QVAL"
        }
      ]
    },
    "AE": {
      "label": "AE",
      "sourceActivities": [
        {
          "activityId": "ACT_AE",
          "activityName": "Adverse events",
          "bcNcit": null,
          "protocolPage": 21
        }
      ],
      "fieldCount": 55,
      "fields": [
        {
          "name": "STUDYID",
          "label": "Study Identifier",
          "order": "1",
          "core": "HR",
          "dataType": "Char",
          "prompt": "[Protocol/Study]",
          "questionText": "What is the study identifier?",
          "definition": "A unique identifier for a study.",
          "codelistNcit": null,
          "codelistName": null,
          "sdtmTarget": "STUDYID"
        },
        {
          "name": "SITEID",
          "label": "Study Site Identifier",
          "order": "2",
          "core": "HR",
          "dataType": "Char",
          "prompt": "Site (Identifier)",
          "questionText": "What is the site identifier?",
          "definition": "A unique identifier for a site within a study.",
          "codelistNcit": null,
          "codelistName": null,
          "sdtmTarget": "SITEID"
        },
        {
          "name": "SUBJID",
          "label": "Subject Identifier for the Study",
          "order": "3",
          "core": "HR",
          "dataType": "Char",
          "prompt": "[Subject/Participant] (Identifier)",
          "questionText": "What [is/was] the (study) [subject/participant] identifier?",
          "definition": "A unique subject identifier within a site and a study.",
          "codelistNcit": null,
          "codelistName": null,
          "sdtmTarget": "SUBJID"
        },
        {
          "name": "AEYN",
          "label": "Any Adverse Event",
          "order": "4",
          "core": "O",
          "dataType": "Char",
          "prompt": "Any Adverse Events",
          "questionText": "Were any adverse events experienced?",
          "definition": "An indication of whether any AEs were experienced during the study.",
          "codelistNcit": "C66742",
          "codelistName": "No Yes Response",
          "sdtmTarget": null
        },
        {
          "name": "AECAT",
          "label": "Category for Adverse Event",
          "order": "5",
          "core": "O",
          "dataType": "Char",
          "prompt": "[Adverse Event Category]; NULL",
          "questionText": "What is the category of the adverse event?",
          "definition": "A grouping of topic-variable values based on user-defined characteristics.",
          "codelistNcit": null,
          "codelistName": null,
          "sdtmTarget": "AECAT"
        },
        {
          "name": "AESCAT",
          "label": "Subcategory for Adverse Event",
          "order": "6",
          "core": "O",
          "dataType": "Char",
          "prompt": "[Adverse Event Subcategory]; NULL",
          "questionText": "What is the subcategory of the adverse event?",
          "definition": "A sub-division of the AECAT values based on user-defined characteristics.",
          "codelistNcit": null,
          "codelistName": null,
          "sdtmTarget": "AESCAT"
        },
        {
          "name": "AESPID",
          "label": "AE Sponsor-Defined Identifier",
          "order": "7",
          "core": "O",
          "dataType": "Char",
          "prompt": "[Sponsor defined]",
          "questionText": "[Sponsor-defined question]",
          "definition": "A sponsor-defined identifier. In CDASH, This is typically used for preprinted or auto-generated numbers on the CRF, or any other type of identifier that does not already have a defined CDASH identifier field.",
          "codelistNcit": null,
          "codelistName": null,
          "sdtmTarget": "AESPID"
        },
        {
          "name": "AETERM",
          "label": "Reported Term for the Adverse Event",
          "order": "8",
          "core": "HR",
          "dataType": "Char",
          "prompt": "Adverse Event",
          "questionText": "What is the adverse event term?",
          "definition": "The reported or prespecified name of the adverse event.",
          "codelistNcit": null,
          "codelistName": null,
          "sdtmTarget": "AETERM"
        },
        {
          "name": "AEOCCUR",
          "label": "Adverse Event Occurrence",
          "order": "9",
          "core": "O",
          "dataType": "Char",
          "prompt": "[Specific Adverse Event ]",
          "questionText": "Did the subject have [prespecified adverse event/group of adverse events]?",
          "definition": "An indication of whether a prespecified adverse event or a group of adverse events occurred when information about the occurrence of a specific event is solicited.",
          "codelistNcit": "C66742",
          "codelistName": "No Yes Response",
          "sdtmTarget": null
        },
        {
          "name": "AEPRESP",
          "label": "prespecified Adverse Event",
          "order": "10",
          "core": "O",
          "dataType": "Char",
          "prompt": null,
          "questionText": null,
          "definition": "An indication that a specific event or group of events are prespecified on a CRF.",
          "codelistNcit": "C66742",
          "codelistName": "No Yes Response",
          "sdtmTarget": "AEPRESP"
        },
        {
          "name": "AESTDAT",
          "label": "Adverse Event Start Date",
          "order": "11",
          "core": "HR",
          "dataType": "Char",
          "prompt": "Start Date",
          "questionText": "What is the adverse event start date?",
          "definition": "The start date of the adverse event, represented in an unambiguous date format (e.g., DD-MON-YYYY).",
          "codelistNcit": null,
          "codelistName": null,
          "sdtmTarget": "AESTDTC"
        },
        {
          "name": "AESTTIM",
          "label": "Start Time of Adverse Event",
          "order": "12",
          "core": "R/C",
          "dataType": "Char",
          "prompt": "Start Time",
          "questionText": "What is the adverse event start time?",
          "definition": "The start time of the adverse event, represented in an unambiguous time format (e.g., hh:mm:ss).",
          "codelistNcit": null,
          "codelistName": null,
          "sdtmTarget": "AESTDTC"
        },
        {
          "name": "AELOC",
          "label": "AE Location of Event",
          "order": "13",
          "core": "O",
          "dataType": "Char",
          "prompt": "Anatomical Location",
          "questionText": "What is the anatomical location of the adverse event?",
          "definition": "A description of the anatomical location relevant for the adverse event.",
          "codelistNcit": "C74456",
          "codelistName": "Anatomical Location",
          "sdtmTarget": "AELOC"
        },
        {
          "name": "AELAT",
          "label": "Adverse Event Laterality",
          "order": "14",
          "core": "O",
          "dataType": "Char",
          "prompt": "Side",
          "questionText": "What is the side of the anatomical location of the adverse event?",
          "definition": "Qualifier for anatomical location, further detailing the side of the body relevant for the event.",
          "codelistNcit": "C99073",
          "codelistName": "Laterality",
          "sdtmTarget": null
        },
        {
          "name": "AEDIR",
          "label": "Adverse Event Directionality",
          "order": "15",
          "core": "O",
          "dataType": "Char",
          "prompt": "Directionality",
          "questionText": "What is the directionality of the anatomical location of the adverse event?",
          "definition": "Qualifier further detailing the position of the anatomical location, relative to the center of the body, organ, or specimen.",
          "codelistNcit": "C99074",
          "codelistName": "Directionality",
          "sdtmTarget": null
        },
        {
          "name": "AEPORTOT",
          "label": "AE Location Portion or Totality",
          "order": "16",
          "core": "O",
          "dataType": "Char",
          "prompt": "Portion or Totality",
          "questionText": "What is the portion or totality of the anatomical location of the adverse event?",
          "definition": "Qualifier for anatomical location, further detailing the distribution (i.e., arrangement of, apportioning of).",
          "codelistNcit": "C99075",
          "codelistName": "Portion/Totality",
          "sdtmTarget": null
        },
        {
          "name": "AEONGO",
          "label": "Ongoing Adverse Event",
          "order": "17",
          "core": "O",
          "dataType": "Char",
          "prompt": "Ongoing (as of [the study-specific time point or period])",
          "questionText": "Is the adverse event ongoing (as of [the study-specific time point or period])?",
          "definition": "Indication that an adverse event is ongoing when no end date is provided.",
          "codelistNcit": "C66742",
          "codelistName": "No Yes Response",
          "sdtmTarget": "AEENRTPT"
        },
        {
          "name": "AEENDAT",
          "label": "Adverse Event End Date",
          "order": "18",
          "core": "R/C",
          "dataType": "Char",
          "prompt": "End Date",
          "questionText": "What was the adverse event end date?",
          "definition": "The date when the adverse event resolved/ended, represented in an unambiguous date format (e.g., DD-MON-YYYY).",
          "codelistNcit": null,
          "codelistName": null,
          "sdtmTarget": "AEENDTC"
        },
        {
          "name": "AEENTIM",
          "label": "End Time of Adverse Event",
          "order": "19",
          "core": "R/C",
          "dataType": "Char",
          "prompt": "End Time",
          "questionText": "What was the adverse event end time?",
          "definition": "The time when the adverse event ended/resolved, represented in an unambiguous time format (e.g., hh:mm:ss).",
          "codelistNcit": null,
          "codelistName": null,
          "sdtmTarget": "AEENDTC"
        },
        {
          "name": "AESEV",
          "label": "AE Severity/Intensity",
          "order": "20",
          "core": "R/C",
          "dataType": "Char",
          "prompt": "Severity",
          "questionText": "What is the severity of the adverse event?",
          "definition": "The severity or intensity of the event.",
          "codelistNcit": "C66769",
          "codelistName": "Severity/Intensity Scale for Adverse Events",
          "sdtmTarget": "AESEV"
        },
        {
          "name": "AETOXGR",
          "label": "AE Standard Toxicity Grade",
          "order": "21",
          "core": "R/C",
          "dataType": "Char",
          "prompt": "[NCI CTCAE/ Name of the scale] (Toxicity) Grade",
          "questionText": "What is the [NCI CTCAE/Name of scale (toxicity) grade] of the adverse event?",
          "definition": "The grade of the severity of the event using a standard \"toxicity\" scale (e.g., NCI CTCAE).",
          "codelistNcit": null,
          "codelistName": null,
          "sdtmTarget": "AETOXGR"
        },
        {
          "name": "AESER",
          "label": "AE Serious Event",
          "order": "22",
          "core": "R/C",
          "dataType": "Char",
          "prompt": "Serious",
          "questionText": "Was the adverse event serious?",
          "definition": "An indication of whether the adverse event is determined to be \"serious,\" based on what is defined in the regulations/protocol.",
          "codelistNcit": "C66742",
          "codelistName": "No Yes Response",
          "sdtmTarget": "AESER"
        },
        {
          "name": "AESDTH",
          "label": "Results in Death",
          "order": "23",
          "core": "R/C",
          "dataType": "Char",
          "prompt": "Death",
          "questionText": "Did the adverse event result in death?",
          "definition": "An indication the serious adverse event resulted in death.",
          "codelistNcit": "C66742",
          "codelistName": "No Yes Response",
          "sdtmTarget": "AESDTH"
        },
        {
          "name": "DTHDAT",
          "label": "Death Date",
          "order": "24",
          "core": "O",
          "dataType": "Char",
          "prompt": "Death Date",
          "questionText": "What [is/was] the subject's date of death?",
          "definition": "Date of death for any subject who died.",
          "codelistNcit": null,
          "codelistName": null,
          "sdtmTarget": "DTHDTC"
        },
        {
          "name": "AESLIFE",
          "label": "Is Life Threatening",
          "order": "25",
          "core": "R/C",
          "dataType": "Char",
          "prompt": "Life Threatening",
          "questionText": "Was the adverse event life threatening?",
          "definition": "An indication the serious adverse event was life threatening.",
          "codelistNcit": "C66742",
          "codelistName": "No Yes Response",
          "sdtmTarget": "AESLIFE"
        },
        {
          "name": "AESHOSP",
          "label": "Requires or Prolongs Hospitalization",
          "order": "26",
          "core": "R/C",
          "dataType": "Char",
          "prompt": "Hospitalization (initial or prolonged)",
          "questionText": "Did the adverse event result in initial or prolonged hospitalization for the subject?",
          "definition": "An indication the serious adverse event resulted in an initial or prolonged hospitalization.",
          "codelistNcit": "C66742",
          "codelistName": "No Yes Response",
          "sdtmTarget": "AESHOSP"
        },
        {
          "name": "AESDISAB",
          "label": "Persist or Signif Disability/Incapacity",
          "order": "27",
          "core": "R/C",
          "dataType": "Char",
          "prompt": "Disability or Permanent Damage",
          "questionText": "Did the adverse event result in disability or permanent damage?",
          "definition": "An indication the serious adverse event was associated with a persistent or significant disability or incapacity.",
          "codelistNcit": "C66742",
          "codelistName": "No Yes Response",
          "sdtmTarget": "AESDISAB"
        },
        {
          "name": "AESCONG",
          "label": "Congenital Anomaly or Birth Defect",
          "order": "28",
          "core": "R/C",
          "dataType": "Char",
          "prompt": "Congenital Anomaly or Birth Defect",
          "questionText": "Was the adverse event associated with a congenital anomaly or birth defect?",
          "definition": "An indication the serious adverse event was associated with a congenital anomaly or birth defect.",
          "codelistNcit": "C66742",
          "codelistName": "No Yes Response",
          "sdtmTarget": "AESCONG"
        },
        {
          "name": "AESINTV",
          "label": "Needs Intervention to Prevent Impairment",
          "order": "29",
          "core": "O",
          "dataType": "Char",
          "prompt": "Needs Intervention to Prevent Impairment",
          "questionText": "Did the adverse event require intervention to prevent permanent impairment or damage resulting from the use of a medical product?",
          "definition": "An indication an adverse event required medical or surgical intervention to preclude permanent impairment of a body function, or prevent permanent damage to a body structure, due to the use of a medical product.",
          "codelistNcit": "C66742",
          "codelistName": "No Yes Response",
          "sdtmTarget": "AESINTV"
        },
        {
          "name": "AESMIE",
          "label": "Other Medically Important Serious Event",
          "order": "30",
          "core": "R/C",
          "dataType": "Char",
          "prompt": "Other Serious (Important Medical Events)",
          "questionText": "Was the adverse event a medically important event not covered by other serious criteria?",
          "definition": "An indication additional categories for seriousness apply.",
          "codelistNcit": "C66742",
          "codelistName": "No Yes Response",
          "sdtmTarget": "AESMIE"
        },
        {
          "name": "AESCAN",
          "label": "Involves Cancer",
          "order": "31",
          "core": "O",
          "dataType": "Char",
          "prompt": "Cancer",
          "questionText": "Was the adverse event associated with the development of cancer?",
          "definition": "An indication the serious event was associated with the development of cancer.",
          "codelistNcit": "C66742",
          "codelistName": "No Yes Response",
          "sdtmTarget": "AESCAN"
        },
        {
          "name": "AESOD",
          "label": "Occurred with Overdose",
          "order": "32",
          "core": "O",
          "dataType": "Char",
          "prompt": "Overdose",
          "questionText": "Did the adverse event occur with an overdose?",
          "definition": "An indication the serious event occurred with an overdose.",
          "codelistNcit": "C66742",
          "codelistName": "No Yes Response",
          "sdtmTarget": "AESOD"
        },
        {
          "name": "AEREL",
          "label": "AE Causality",
          "order": "33",
          "core": "HR",
          "dataType": "Char",
          "prompt": "Relationship to Study Treatment",
          "questionText": "Was this adverse event related to study treatment?",
          "definition": "An indication the study treatment had a causal effect on the adverse event, as determined by the clinician/investigator.",
          "codelistNcit": null,
          "codelistName": null,
          "sdtmTarget": "AEREL"
        },
        {
          "name": "AEACN",
          "label": "Action Taken with Study Treatment",
          "order": "34",
          "core": "R/C",
          "dataType": "Char",
          "prompt": "Action Taken with Study Treatment",
          "questionText": "What action was taken with study treatment?",
          "definition": "A description of the action taken with study treatment as a result of the event.",
          "codelistNcit": "C66767",
          "codelistName": "Action Taken with Study Treatment",
          "sdtmTarget": "AEACN"
        },
        {
          "name": "AEACNDEV",
          "label": "Actions Taken with Device",
          "order": "35",
          "core": "O",
          "dataType": "Char",
          "prompt": "Action Taken with Device",
          "questionText": "What action was taken with a device used in the study?",
          "definition": "A description of the action taken, with respect to a device used in a study (which may or may not be the device under study), as a result of the event.",
          "codelistNcit": null,
          "codelistName": null,
          "sdtmTarget": "AEACNDEV"
        },
        {
          "name": "AEACNOYN",
          "label": "Any Other Actions Taken",
          "order": "36",
          "core": "O",
          "dataType": "Char",
          "prompt": "Any Other Action(s) Taken",
          "questionText": "Were any other actions taken in response to this adverse event?",
          "definition": "An indication whether any other actions were taken in response to the adverse event that were unrelated to study treatment dose changes or other non-study treatments given because of this adverse event.",
          "codelistNcit": "C66742",
          "codelistName": "No Yes Response",
          "sdtmTarget": null
        },
        {
          "name": "AEACNOTH",
          "label": "Other Action Taken",
          "order": "37",
          "core": "O",
          "dataType": "Char",
          "prompt": "Other Action Taken",
          "questionText": "What other action was taken?",
          "definition": "A description of other action taken as a result of the event that is unrelated to dose adjustments of the study treatment.",
          "codelistNcit": null,
          "codelistName": null,
          "sdtmTarget": "AEACNOTH"
        },
        {
          "name": "AEOUT",
          "label": "Outcome of Adverse Event",
          "order": "38",
          "core": "R/C",
          "dataType": "Char",
          "prompt": "Outcome",
          "questionText": "What is the outcome of this adverse event?",
          "definition": "A description of the outcome of an event.",
          "codelistNcit": "C66768",
          "codelistName": "Outcome of Event",
          "sdtmTarget": "AEOUT"
        },
        {
          "name": "AEDIS",
          "label": "AE Caused Study Discontinuation",
          "order": "39",
          "core": "O",
          "dataType": "Char",
          "prompt": "Caused Study Discontinuation",
          "questionText": "Did the adverse event cause the subject to be discontinued from the study?",
          "definition": "An indication of whether the event caused the subject to discontinue from the study.",
          "codelistNcit": "C66742",
          "codelistName": "No Yes Response",
          "sdtmTarget": "QVAL"
        },
        {
          "name": "AERLNSYN",
          "label": "AE Related to Non-Study Treatment",
          "order": "40",
          "core": "O",
          "dataType": "Char",
          "prompt": "Related to Non-Study Treatment",
          "questionText": "Was this adverse event due to treatment other than study treatment?",
          "definition": "An indication whether, in the investigator's opinion, the event may have been due to a treatment other than study treatment.",
          "codelistNcit": "C66742",
          "codelistName": "No Yes Response",
          "sdtmTarget": null
        },
        {
          "name": "AERELNST",
          "label": "AE Relationship to Non-Study Treatment",
          "order": "41",
          "core": "O",
          "dataType": "Char",
          "prompt": "Relationship to Non-Study Treatment",
          "questionText": "What is the relationship to non-study treatment?",
          "definition": "Description of the investigator's opinion as to whether the adverse event may have been due to a treatment other than study treatment.",
          "codelistNcit": null,
          "codelistName": null,
          "sdtmTarget": "AERELNST"
        },
        {
          "name": "AESI",
          "label": "Adverse Event of Special Interest",
          "order": "42",
          "core": "O",
          "dataType": "Char",
          "prompt": "Adverse Event of Special Interest",
          "questionText": "Is this event of special interest?",
          "definition": "An adverse event of special interest (serious or non-serious) is one of scientific and medical concern specific to the sponsor's product or program, for which ongoing monitoring and rapid communication by the investigator to the sponsor can be appropriate. Such an event might warrant further investi",
          "codelistNcit": "C66742",
          "codelistName": "No Yes Response",
          "sdtmTarget": null
        },
        {
          "name": "AEPATT",
          "label": "Pattern of Adverse Event",
          "order": "43",
          "core": "O",
          "dataType": "Char",
          "prompt": "Pattern",
          "questionText": "What is the adverse event pattern?",
          "definition": "Used to indicate the pattern of the event over time.",
          "codelistNcit": null,
          "codelistName": null,
          "sdtmTarget": "AEPATT"
        },
        {
          "name": "AECONTRT",
          "label": "Concomitant or Additional Trtmnt Given",
          "order": "44",
          "core": "O",
          "dataType": "Char",
          "prompt": "Concomitant or Additional Treatment Given Due to This AE",
          "questionText": "Was a concomitant or additional treatment given due to this adverse event?",
          "definition": "An indication whether a concomitant or additional treatment given because of the occurrence of the event.",
          "codelistNcit": "C66742",
          "codelistName": "No Yes Response",
          "sdtmTarget": "AECONTRT"
        },
        {
          "name": "AEMODIFY",
          "label": "AE Modified Reported Term",
          "order": "45",
          "core": "R/C",
          "dataType": "Char",
          "prompt": null,
          "questionText": null,
          "definition": "If the value for AETERM is modified to facilitate coding, then AEMODIFY will contain the modified text.",
          "codelistNcit": null,
          "codelistName": null,
          "sdtmTarget": "AEMODIFY"
        },
        {
          "name": "AEDECOD",
          "label": "AE Dictionary-Derived Term",
          "order": "46",
          "core": "O",
          "dataType": "Char",
          "prompt": null,
          "questionText": null,
          "definition": "The dictionary or standardized text description of AETERM or the modified topic variable (AEMODIFY), if applicable.",
          "codelistNcit": null,
          "codelistName": null,
          "sdtmTarget": "AEDECOD"
        },
        {
          "name": "AELLT",
          "label": "AE Lowest Level Term",
          "order": "47",
          "core": "R/C",
          "dataType": "Char",
          "prompt": null,
          "questionText": null,
          "definition": "The dictionary-derived text description of the lowest level term.",
          "codelistNcit": null,
          "codelistName": null,
          "sdtmTarget": "AELLT"
        },
        {
          "name": "AELLTCD",
          "label": "AE Lowest Level Term Code",
          "order": "48",
          "core": "R/C",
          "dataType": "Num",
          "prompt": null,
          "questionText": null,
          "definition": "The dictionary-derived code for the lowest level term.",
          "codelistNcit": null,
          "codelistName": null,
          "sdtmTarget": "AELLTCD"
        },
        {
          "name": "AEPTCD",
          "label": "AE Preferred Term Code",
          "order": "49",
          "core": "R/C",
          "dataType": "Num",
          "prompt": null,
          "questionText": null,
          "definition": "The dictionary-derived code for the preferred term.",
          "codelistNcit": null,
          "codelistName": null,
          "sdtmTarget": "AEPTCD"
        },
        {
          "name": "AEHLT",
          "label": "AE High Level Term",
          "order": "50",
          "core": "R/C",
          "dataType": "Char",
          "prompt": null,
          "questionText": null,
          "definition": "The dictionary-derived text description of the high level term for the primary system organ class (SOC).",
          "codelistNcit": null,
          "codelistName": null,
          "sdtmTarget": "AEHLT"
        },
        {
          "name": "AEHLTCD",
          "label": "AE High Level Term Code",
          "order": "51",
          "core": "R/C",
          "dataType": "Num",
          "prompt": null,
          "questionText": null,
          "definition": "The dictionary-derived code for the high level term for the primary system organ class (SOC).",
          "codelistNcit": null,
          "codelistName": null,
          "sdtmTarget": "AEHLTCD"
        },
        {
          "name": "AEHLGT",
          "label": "AE High Level Group Term",
          "order": "52",
          "core": "R/C",
          "dataType": "Char",
          "prompt": null,
          "questionText": null,
          "definition": "The dictionary-derived text description of the high level group term for the primary system organ class (SOC).",
          "codelistNcit": null,
          "codelistName": null,
          "sdtmTarget": "AEHLGT"
        },
        {
          "name": "AEHLGTCD",
          "label": "AE High Level Group Term Code",
          "order": "53",
          "core": "R/C",
          "dataType": "Num",
          "prompt": null,
          "questionText": null,
          "definition": "The dictionary-derived code for the high level group term for the primary system organ class (SOC).",
          "codelistNcit": null,
          "codelistName": null,
          "sdtmTarget": "AEHLGTCD"
        },
        {
          "name": "AESOC",
          "label": "AE Primary System Organ Class",
          "order": "54",
          "core": "R/C",
          "dataType": "Char",
          "prompt": null,
          "questionText": null,
          "definition": "The dictionary-derived text description of the primary system organ class (SOC).",
          "codelistNcit": null,
          "codelistName": null,
          "sdtmTarget": "AESOC"
        },
        {
          "name": "AESOCCD",
          "label": "AE Primary System Organ Class Code",
          "order": "55",
          "core": "R/C",
          "dataType": "Num",
          "prompt": null,
          "questionText": null,
          "definition": "The dictionary-derived code for the primary system organ class (SOC).",
          "codelistNcit": null,
          "codelistName": null,
          "sdtmTarget": "AESOCCD"
        }
      ]
    },
    "DS": {
      "label": "DS",
      "sourceActivities": [
        {
          "activityId": "ACT_RAND",
          "activityName": "Randomisation (IVRS/IWRS)",
          "bcNcit": null,
          "protocolPage": 21
        },
        {
          "activityId": "ACT_DISP",
          "activityName": "Study completion / disposition",
          "bcNcit": null,
          "protocolPage": 24
        }
      ],
      "fieldCount": 11,
      "fields": [
        {
          "name": "STUDYID",
          "label": "Study Identifier",
          "order": "1",
          "core": "HR",
          "dataType": "Char",
          "prompt": "[Protocol/Study]",
          "questionText": "What is the study identifier?",
          "definition": "A unique identifier for a study.",
          "codelistNcit": null,
          "codelistName": null,
          "sdtmTarget": "STUDYID"
        },
        {
          "name": "SITEID",
          "label": "Study Site Identifier",
          "order": "2",
          "core": "HR",
          "dataType": "Char",
          "prompt": "Site (Identifier)",
          "questionText": "What is the site identifier?",
          "definition": "A unique identifier for a site within a study.",
          "codelistNcit": null,
          "codelistName": null,
          "sdtmTarget": "SITEID"
        },
        {
          "name": "SUBJID",
          "label": "Subject Identifier for the Study",
          "order": "3",
          "core": "HR",
          "dataType": "Char",
          "prompt": "[Subject/Participant] (Identifier)",
          "questionText": "What [is/was] the (study) [subject/participant] identifier?",
          "definition": "A unique subject identifier within a site and a study.",
          "codelistNcit": null,
          "codelistName": null,
          "sdtmTarget": "SUBJID"
        },
        {
          "name": "DSCAT",
          "label": "Category for Disposition Event",
          "order": "4",
          "core": "HR",
          "dataType": "Char",
          "prompt": "[Disposition Category]",
          "questionText": "What was the category of the disposition?",
          "definition": "A categorization of the disposition events, which is used to distinguish between disposition events, protocol milestones, and other events.",
          "codelistNcit": "C74558",
          "codelistName": "Category of Disposition Event",
          "sdtmTarget": "DSCAT"
        },
        {
          "name": "DSSCAT",
          "label": "Subcategory for Disposition Event",
          "order": "5",
          "core": "O",
          "dataType": "Char",
          "prompt": "[Disposition Subcategory]; NULL",
          "questionText": "What was the subcategory of the disposition?",
          "definition": "A sub-division of the DSCAT values based on user-defined characteristics.",
          "codelistNcit": null,
          "codelistName": null,
          "sdtmTarget": "DSSCAT"
        },
        {
          "name": "EPOCH",
          "label": "Epoch",
          "order": "6",
          "core": "R/C",
          "dataType": "Char",
          "prompt": "Trial Period",
          "questionText": "What is the trial period for this disposition event?",
          "definition": "Trial Epoch (e.g., 'BLINDED TREATMENT', 'OPEN LABEL TREATMENT', 'SCREENING', 'RUN-IN') for which subject disposition is being collected.",
          "codelistNcit": "C99079",
          "codelistName": "Epoch",
          "sdtmTarget": "EPOCH"
        },
        {
          "name": "DSDECOD",
          "label": "Standardized Disposition Term",
          "order": "7",
          "core": "R/C",
          "dataType": "Char",
          "prompt": "[Sponsor-defined]",
          "questionText": "[Sponsor-defined]",
          "definition": "The standardized terminology of the disposition term.",
          "codelistNcit": "C114118",
          "codelistName": "Protocol Milestone",
          "sdtmTarget": "DSDECOD"
        },
        {
          "name": "DSTERM",
          "label": "Reported Term for the Disposition Event",
          "order": "8",
          "core": "R/C",
          "dataType": "Char",
          "prompt": "[Sponsor-defined]",
          "questionText": "[Sponsor-defined]",
          "definition": "The verbatim or prespecified name of the disposition term.",
          "codelistNcit": null,
          "codelistName": null,
          "sdtmTarget": "DSTERM"
        },
        {
          "name": "DSSTDAT",
          "label": "Disposition Event Start Date",
          "order": "9",
          "core": "R/C",
          "dataType": "Char",
          "prompt": "[Protocol Milestone/Other Event Name] (start) Date",
          "questionText": "What was the [protocol milestone/other event name] (start) date?",
          "definition": "The date of the specified protocol milestone (e.g., informed consent, randomization) represented in an unambiguous date format (e.g., DD-MON-YYYY).",
          "codelistNcit": null,
          "codelistName": null,
          "sdtmTarget": "DSSTDTC"
        },
        {
          "name": "DSSTTIM",
          "label": "Disposition Event Start Time",
          "order": "10",
          "core": "O",
          "dataType": "Char",
          "prompt": "[Protocol Milestone/Other Event Name] (start) Time",
          "questionText": "What was the [protocol milestone/other event name] (start) time?",
          "definition": "The time of the specified protocol milestone (e.g., informed consent, randomization) or other event, represented in an unambiguous time format (e.g., hh:mm:ss).",
          "codelistNcit": null,
          "codelistName": null,
          "sdtmTarget": "DSSTDTC"
        },
        {
          "name": "DSUNBLND",
          "label": "Unblinded",
          "order": "11",
          "core": "O",
          "dataType": "Char",
          "prompt": "Unblinded",
          "questionText": "Was (study) treatment unblinded by the site?",
          "definition": "An indication of whether the subject's treatment information was revealed to any unauthorized site personnel during the trial.",
          "codelistNcit": "C66742",
          "codelistName": "No Yes Response",
          "sdtmTarget": "DSTERM"
        }
      ]
    }
  }
}