{
  "C66781": {
    "conceptId": "C66781",
    "name": "Age Unit",
    "extensible": "false",
    "package": "sdtmct-2026-03-27",
    "terms": [
      {
        "submissionValue": "DAYS",
        "conceptId": "C25301",
        "decode": "Day"
      },
      {
        "submissionValue": "HOURS",
        "conceptId": "C25529",
        "decode": "Hour"
      },
      {
        "submissionValue": "MONTHS",
        "conceptId": "C29846",
        "decode": "Month"
      },
      {
        "submissionValue": "WEEKS",
        "conceptId": "C29844",
        "decode": "Week"
      },
      {
        "submissionValue": "YEARS",
        "conceptId": "C29848",
        "decode": "Year"
      }
    ]
  },
  "C66731": {
    "conceptId": "C66731",
    "name": "Sex",
    "extensible": "false",
    "package": "sdtmct-2026-03-27",
    "terms": [
      {
        "submissionValue": "F",
        "conceptId": "C16576",
        "decode": "Female"
      },
      {
        "submissionValue": "INTERSEX",
        "conceptId": "C45908",
        "decode": "Intersex"
      },
      {
        "submissionValue": "M",
        "conceptId": "C20197",
        "decode": "Male"
      },
      {
        "submissionValue": "U",
        "conceptId": "C17998",
        "decode": "Unknown"
      }
    ]
  },
  "C128690": {
    "conceptId": "C128690",
    "name": "Ethnicity As Collected",
    "extensible": "true",
    "package": "sdtmct-2026-03-27",
    "terms": [
      {
        "submissionValue": "ACHANG",
        "conceptId": "C158197",
        "decode": "Achang Chinese"
      },
      {
        "submissionValue": "AFRO-LATINO",
        "conceptId": "C209542",
        "decode": "Afro-Latino"
      },
      {
        "submissionValue": "ASHKENAZI JEW",
        "conceptId": "C17950",
        "decode": "Ashkenazi Jew"
      },
      {
        "submissionValue": "BAI",
        "conceptId": "C158171",
        "decode": "Bai Chinese"
      },
      {
        "submissionValue": "BLANG",
        "conceptId": "C158193",
        "decode": "Blang Chinese"
      },
      {
        "submissionValue": "BONAN",
        "conceptId": "C158203",
        "decode": "Bonan Chinese"
      },
      {
        "submissionValue": "BUYEI",
        "conceptId": "C158169",
        "decode": "Buyei Chinese"
      },
      {
        "submissionValue": "CENTRAL AMERICAN",
        "conceptId": "C67118",
        "decode": "Central American"
      },
      {
        "submissionValue": "CHOSEN",
        "conceptId": "C158172",
        "decode": "Chosen Chinese"
      },
      {
        "submissionValue": "CUBAN AMERICAN",
        "conceptId": "C67115",
        "decode": "Cuban or Cuban American"
      },
      {
        "submissionValue": "CUBAN",
        "conceptId": "C107608",
        "decode": "Cuban"
      },
      {
        "submissionValue": "DAI",
        "conceptId": "C158176",
        "decode": "Dai Chinese"
      },
      {
        "submissionValue": "DAUR",
        "conceptId": "C158191",
        "decode": "Daur Chinese"
      },
      {
        "submissionValue": "DEANG",
        "conceptId": "C158202",
        "decode": "Deang Chinese"
      },
      {
        "submissionValue": "DERUNG",
        "conceptId": "C158209",
        "decode": "Derung Chinese"
      },
      {
        "submissionValue": "DONG",
        "conceptId": "C158168",
        "decode": "Dong Chinese"
      },
      {
        "submissionValue": "DONGXIANG",
        "conceptId": "C158179",
        "decode": "Dongxiang Chinese"
      },
      {
        "submissionValue": "EWENKI",
        "conceptId": "C158199",
        "decode": "Ewenki Chinese"
      },
      {
        "submissionValue": "GAOSHAN",
        "conceptId": "C158211",
        "decode": "Gaoshan Chinese"
      },
      {
        "submissionValue": "GELAO",
        "conceptId": "C158180",
        "decode": "Gelao Chinese"
      },
      {
        "submissionValue": "GIN",
        "conceptId": "C158200",
        "decode": "Gin Chinese"
      },
      {
        "submissionValue": "HAN",
        "conceptId": "C158158",
        "decode": "Han Chinese"
      },
      {
        "submissionValue": "HANI",
        "conceptId": "C158173",
        "decode": "Hani Chinese"
      },
      {
        "submissionValue": "HEZHEN",
        "conceptId": "C158210",
        "decode": "Hezhen Chinese"
      },
      {
        "submissionValue": "HISPANIC OR LATINO",
        "conceptId": "C17459",
        "decode": "Hispanic or Latino"
      },
      {
        "submissionValue": "HISPANIC",
        "conceptId": "C209543",
        "decode": "Hispanic"
      },
      {
        "submissionValue": "HUI",
        "conceptId": "C158160",
        "decode": "Hui Chinese"
      },
      {
        "submissionValue": "JINGPO",
        "conceptId": "C158190",
        "decode": "Jingpo Chinese"
      },
      {
        "submissionValue": "JINO",
        "conceptId": "C158201",
        "decode": "Jino Chinese"
      },
      {
        "submissionValue": "KAZAK",
        "conceptId": "C158175",
        "decode": "Kazak Chinese"
      },
      {
        "submissionValue": "KIRGIZ",
        "conceptId": "C158189",
        "decode": "Kirgiz Chinese"
      },
      {
        "submissionValue": "KURDISH",
        "conceptId": "C205491",
        "decode": "Kurdish"
      },
      {
        "submissionValue": "LAHU",
        "conceptId": "C158181",
        "decode": "Lahu Chinese"
      },
      {
        "submissionValue": "LATIN AMERICAN",
        "conceptId": "C126531",
        "decode": "Latin American"
      },
      {
        "submissionValue": "LATINO",
        "conceptId": "C209544",
        "decode": "Latino"
      },
      {
        "submissionValue": "LATINO-CARIBBEAN",
        "conceptId": "C209545",
        "decode": "Latino-Caribbean"
      },
      {
        "submissionValue": "LHOBA",
        "conceptId": "C158212",
        "decode": "Lhoba Chinese"
      },
      {
        "submissionValue": "LI",
        "conceptId": "C158174",
        "decode": "Li Chinese"
      },
      {
        "submissionValue": "LISU",
        "conceptId": "C158178",
        "decode": "Lisu Chinese"
      },
      {
        "submissionValue": "MAN",
        "conceptId": "C158161",
        "decode": "Man Chinese"
      },
      {
        "submissionValue": "MAONAN",
        "conceptId": "C158194",
        "decode": "Maonan Chinese"
      },
      {
        "submissionValue": "MEXICAN AMERICAN",
        "conceptId": "C67114",
        "decode": "Mexican American"
      },
      {
        "submissionValue": "MEXICAN",
        "conceptId": "C67113",
        "decode": "Mexican"
      },
      {
        "submissionValue": "MIAO",
        "conceptId": "C158163",
        "decode": "Miao Chinese"
      },
      {
        "submissionValue": "MONBA",
        "conceptId": "C158207",
        "decode": "Monba Chinese"
      },
      {
        "submissionValue": "MONGOL",
        "conceptId": "C158167",
        "decode": "Mongol Chinese"
      },
      {
        "submissionValue": "MULAO",
        "conceptId": "C158187",
        "decode": "Mulao Chinese"
      },
      {
        "submissionValue": "NAXI",
        "conceptId": "C158184",
        "decode": "Naxi Chinese"
      },
      {
        "submissionValue": "NOT HISPANIC OR LATINO",
        "conceptId": "C41222",
        "decode": "Not Hispanic or Latino"
      },
      {
        "submissionValue": "NOT REPORTED",
        "conceptId": "C43234",
        "decode": "Not Reported"
      },
      {
        "submissionValue": "NU",
        "conceptId": "C158198",
        "decode": "Nu Chinese"
      },
      {
        "submissionValue": "OROQEN",
        "conceptId": "C158208",
        "decode": "Oroqen Chinese"
      },
      {
        "submissionValue": "PUERTO RICAN",
        "conceptId": "C67112",
        "decode": "Puerto Rican"
      },
      {
        "submissionValue": "PUMI",
        "conceptId": "C158196",
        "decode": "Pumi Chinese"
      },
      {
        "submissionValue": "QIANG",
        "conceptId": "C158185",
        "decode": "Qiang Chinese"
      },
      {
        "submissionValue": "RUSS",
        "conceptId": "C158204",
        "decode": "Russ Chinese"
      },
      {
        "submissionValue": "SALAR",
        "conceptId": "C158192",
        "decode": "Salar Chinese"
      },
      {
        "submissionValue": "SEPHARDIC JEW",
        "conceptId": "C103283",
        "decode": "Sephardic Jew"
      },
      {
        "submissionValue": "SHE",
        "conceptId": "C158177",
        "decode": "She Chinese"
      },
      {
        "submissionValue": "SOUTH AMERICAN",
        "conceptId": "C126532",
        "decode": "South American"
      },
      {
        "submissionValue": "SPANISH",
        "conceptId": "C67120",
        "decode": "Spanish"
      },
      {
        "submissionValue": "SUI",
        "conceptId": "C158183",
        "decode": "Sui Chinese"
      },
      {
        "submissionValue": "TAJIK",
        "conceptId": "C158195",
        "decode": "Tajik Chinese"
      },
      {
        "submissionValue": "TATAR",
        "conceptId": "C158213",
        "decode": "Tatar Chinese"
      },
      {
        "submissionValue": "TU",
        "conceptId": "C158186",
        "decode": "Tu Chinese"
      },
      {
        "submissionValue": "TUJIA",
        "conceptId": "C158165",
        "decode": "Tujia Chinese"
      },
      {
        "submissionValue": "UNKNOWN",
        "conceptId": "C17998",
        "decode": "Unknown"
      },
      {
        "submissionValue": "UYGUR",
        "conceptId": "C158162",
        "decode": "Uygur Chinese"
      },
      {
        "submissionValue": "UZBEK",
        "conceptId": "C158206",
        "decode": "Uzbek Chinese"
      },
      {
        "submissionValue": "VA",
        "conceptId": "C158182",
        "decode": "Va Chinese"
      },
      {
        "submissionValue": "XIBE",
        "conceptId": "C158188",
        "decode": "Xibe Chinese"
      },
      {
        "submissionValue": "YAO",
        "conceptId": "C158170",
        "decode": "Yao Chinese"
      },
      {
        "submissionValue": "YI",
        "conceptId": "C158164",
        "decode": "Yi Chinese"
      },
      {
        "submissionValue": "YUGUR",
        "conceptId": "C158205",
        "decode": "Yugur Chinese"
      },
      {
        "submissionValue": "ZANG",
        "conceptId": "C158166",
        "decode": "Zang Chinese"
      },
      {
        "submissionValue": "ZHUANG",
        "conceptId": "C158159",
        "decode": "Zhuang Chinese"
      }
    ]
  },
  "C128689": {
    "conceptId": "C128689",
    "name": "Race As Collected",
    "extensible": "true",
    "package": "sdtmct-2026-03-27",
    "terms": [
      {
        "submissionValue": "ABORIGINAL AUSTRALIAN",
        "conceptId": "C154875",
        "decode": "Aboriginal Australian"
      },
      {
        "submissionValue": "AFGHAN",
        "conceptId": "C43874",
        "decode": "Afghanistani"
      },
      {
        "submissionValue": "AFRICAN AMERICAN",
        "conceptId": "C128937",
        "decode": "African American"
      },
      {
        "submissionValue": "AFRICAN CARIBBEAN",
        "conceptId": "C41226",
        "decode": "African Caribbean"
      },
      {
        "submissionValue": "AFRICAN",
        "conceptId": "C42331",
        "decode": "African"
      },
      {
        "submissionValue": "ALASKA NATIVE",
        "conceptId": "C18237",
        "decode": "Alaska Native"
      },
      {
        "submissionValue": "AMERICAN INDIAN OR ALASKA NATIVE",
        "conceptId": "C41259",
        "decode": "American Indian or Alaska Native"
      },
      {
        "submissionValue": "AMERICAN INDIAN",
        "conceptId": "C43877",
        "decode": "American Indian"
      },
      {
        "submissionValue": "ARAB",
        "conceptId": "C43876",
        "decode": "Arab"
      },
      {
        "submissionValue": "ARUBAN",
        "conceptId": "C209663",
        "decode": "Aruban"
      },
      {
        "submissionValue": "ASIAN AMERICAN",
        "conceptId": "C16310",
        "decode": "Asian American"
      },
      {
        "submissionValue": "ASIAN INDIAN",
        "conceptId": "C41262",
        "decode": "Asian Indian"
      },
      {
        "submissionValue": "ASIAN",
        "conceptId": "C41260",
        "decode": "Asian"
      },
      {
        "submissionValue": "BAHAMIAN",
        "conceptId": "C67271",
        "decode": "Bahamian"
      },
      {
        "submissionValue": "BANGLADESHI",
        "conceptId": "C43671",
        "decode": "Bangladeshi"
      },
      {
        "submissionValue": "BARBADIAN",
        "conceptId": "C43823",
        "decode": "Barbadian"
      },
      {
        "submissionValue": "BELIZEAN",
        "conceptId": "C209664",
        "decode": "Belizean"
      },
      {
        "submissionValue": "BERMUDAN",
        "conceptId": "C209665",
        "decode": "Bermudan"
      },
      {
        "submissionValue": "BHUTANESE",
        "conceptId": "C43673",
        "decode": "Bhutanese"
      },
      {
        "submissionValue": "BLACK CENTRAL AMERICAN",
        "conceptId": "C128991",
        "decode": "Black Central American"
      },
      {
        "submissionValue": "BLACK OR AFRICAN AMERICAN",
        "conceptId": "C16352",
        "decode": "Black or African American"
      },
      {
        "submissionValue": "BLACK SOUTH AFRICAN",
        "conceptId": "C209666",
        "decode": "Black South African"
      },
      {
        "submissionValue": "BLACK SOUTH AMERICAN",
        "conceptId": "C128992",
        "decode": "Black South American"
      },
      {
        "submissionValue": "BLACK",
        "conceptId": "C128938",
        "decode": "Black"
      },
      {
        "submissionValue": "BOTSWANAN",
        "conceptId": "C43830",
        "decode": "Botswanan"
      },
      {
        "submissionValue": "BRAZILIAN",
        "conceptId": "C209667",
        "decode": "Brazilian"
      },
      {
        "submissionValue": "BURMESE",
        "conceptId": "C43674",
        "decode": "Burmese"
      },
      {
        "submissionValue": "CABO VERDEAN",
        "conceptId": "C209668",
        "decode": "Cabo Verdean"
      },
      {
        "submissionValue": "CAMBODIAN",
        "conceptId": "C43399",
        "decode": "Cambodian"
      },
      {
        "submissionValue": "CANADIAN INDIAN",
        "conceptId": "C44949",
        "decode": "Canadian Indian"
      },
      {
        "submissionValue": "CARIBBEAN INDIAN",
        "conceptId": "C77810",
        "decode": "Caribbean Indian"
      },
      {
        "submissionValue": "CARIBBEAN",
        "conceptId": "C209448",
        "decode": "Caribbean Race"
      },
      {
        "submissionValue": "CAYMAN ISLANDER",
        "conceptId": "C209669",
        "decode": "Cayman Islander"
      },
      {
        "submissionValue": "CENTRAL AMERICAN INDIAN",
        "conceptId": "C44950",
        "decode": "Central American Indian"
      },
      {
        "submissionValue": "CENTRAL ASIAN",
        "conceptId": "C126534",
        "decode": "Central Asian"
      },
      {
        "submissionValue": "CHAMORRO",
        "conceptId": "C43403",
        "decode": "Chamorran"
      },
      {
        "submissionValue": "CHINESE",
        "conceptId": "C43391",
        "decode": "Chinese"
      },
      {
        "submissionValue": "CHUUKESE",
        "conceptId": "C43846",
        "decode": "Chuukese"
      },
      {
        "submissionValue": "COLOMBIAN",
        "conceptId": "C205488",
        "decode": "Colombian"
      },
      {
        "submissionValue": "COMORIAN",
        "conceptId": "C209670",
        "decode": "Comorian"
      },
      {
        "submissionValue": "CONGOLESE",
        "conceptId": "C205493",
        "decode": "Congolese"
      },
      {
        "submissionValue": "DOMINICA ISLANDER",
        "conceptId": "C43824",
        "decode": "Dominica Islander"
      },
      {
        "submissionValue": "DOMINICAN",
        "conceptId": "C67117",
        "decode": "Dominican"
      },
      {
        "submissionValue": "EAST ASIAN",
        "conceptId": "C161419",
        "decode": "East Asian"
      },
      {
        "submissionValue": "EASTERN EUROPEAN",
        "conceptId": "C77819",
        "decode": "Eastern European"
      },
      {
        "submissionValue": "EGYPTIAN",
        "conceptId": "C43868",
        "decode": "Egyptian"
      },
      {
        "submissionValue": "ENGLISH",
        "conceptId": "C43853",
        "decode": "English"
      },
      {
        "submissionValue": "ETHIOPIAN",
        "conceptId": "C43831",
        "decode": "Ethiopian"
      },
      {
        "submissionValue": "EUROPEAN",
        "conceptId": "C43851",
        "decode": "European"
      },
      {
        "submissionValue": "FIJIAN",
        "conceptId": "C43410",
        "decode": "Fiji Islander"
      },
      {
        "submissionValue": "FILIPINO",
        "conceptId": "C43393",
        "decode": "Filipino"
      },
      {
        "submissionValue": "FRENCH",
        "conceptId": "C43854",
        "decode": "French"
      },
      {
        "submissionValue": "GERMAN",
        "conceptId": "C43855",
        "decode": "German"
      },
      {
        "submissionValue": "GHANAIAN",
        "conceptId": "C205483",
        "decode": "Ghanian"
      },
      {
        "submissionValue": "GREENLAND INUIT",
        "conceptId": "C44265",
        "decode": "Greenland Eskimo"
      },
      {
        "submissionValue": "GUAMANIAN OR CHAMORRO",
        "conceptId": "C43837",
        "decode": "Guamanian or Chamorro"
      },
      {
        "submissionValue": "GUAMANIAN",
        "conceptId": "C43404",
        "decode": "Guamanian"
      },
      {
        "submissionValue": "GUATEMALAN",
        "conceptId": "C205486",
        "decode": "Guatemalan"
      },
      {
        "submissionValue": "GUYANESE",
        "conceptId": "C209671",
        "decode": "Guyanese"
      },
      {
        "submissionValue": "HAITIAN",
        "conceptId": "C43825",
        "decode": "Haitian"
      },
      {
        "submissionValue": "HISPANIC OR LATINO",
        "conceptId": "C17459",
        "decode": "Hispanic or Latino"
      },
      {
        "submissionValue": "HMONG",
        "conceptId": "C43398",
        "decode": "Hmong"
      },
      {
        "submissionValue": "HONDURAN",
        "conceptId": "C205487",
        "decode": "Honduran"
      },
      {
        "submissionValue": "INDONESIAN",
        "conceptId": "C43715",
        "decode": "Indonesian"
      },
      {
        "submissionValue": "INUPIAT INUIT",
        "conceptId": "C44268",
        "decode": "Inupiat Eskimo"
      },
      {
        "submissionValue": "IRANIAN",
        "conceptId": "C43869",
        "decode": "Iranian"
      },
      {
        "submissionValue": "IRAQI",
        "conceptId": "C43870",
        "decode": "Iraqi"
      },
      {
        "submissionValue": "IRISH",
        "conceptId": "C43856",
        "decode": "Irish"
      },
      {
        "submissionValue": "ISRAELI",
        "conceptId": "C43875",
        "decode": "Israeli"
      },
      {
        "submissionValue": "ITALIAN",
        "conceptId": "C43857",
        "decode": "Italian"
      },
      {
        "submissionValue": "IWO JIMAN",
        "conceptId": "C43718",
        "decode": "Iwo Jiman"
      },
      {
        "submissionValue": "JAMAICAN",
        "conceptId": "C43826",
        "decode": "Jamaican"
      },
      {
        "submissionValue": "JAPANESE",
        "conceptId": "C43392",
        "decode": "Japanese"
      },
      {
        "submissionValue": "KHOISAN",
        "conceptId": "C154874",
        "decode": "Khoisan"
      },
      {
        "submissionValue": "KOREAN",
        "conceptId": "C43395",
        "decode": "Korean"
      },
      {
        "submissionValue": "LAOTIAN",
        "conceptId": "C43397",
        "decode": "Laotian"
      },
      {
        "submissionValue": "LATIN AMERICAN INDIAN",
        "conceptId": "C209672",
        "decode": "Latin American Indian"
      },
      {
        "submissionValue": "LATIN AMERICAN",
        "conceptId": "C126531",
        "decode": "Latin American"
      },
      {
        "submissionValue": "LEBANESE",
        "conceptId": "C43871",
        "decode": "Lebanese"
      },
      {
        "submissionValue": "LIBERIAN",
        "conceptId": "C43832",
        "decode": "Liberian"
      },
      {
        "submissionValue": "MALAGASY",
        "conceptId": "C43722",
        "decode": "Malagasy"
      },
      {
        "submissionValue": "MALAYSIAN",
        "conceptId": "C43716",
        "decode": "Malaysian"
      },
      {
        "submissionValue": "MALDIVIAN",
        "conceptId": "C43719",
        "decode": "Maldivian"
      },
      {
        "submissionValue": "MAORI",
        "conceptId": "C158274",
        "decode": "Maori"
      },
      {
        "submissionValue": "MARSHALLESE",
        "conceptId": "C43839",
        "decode": "Marshallese"
      },
      {
        "submissionValue": "MAURITANIAN",
        "conceptId": "C209673",
        "decode": "Mauritanian"
      },
      {
        "submissionValue": "MEDITERRANEAN",
        "conceptId": "C77811",
        "decode": "Mediterranean"
      },
      {
        "submissionValue": "MELANESIAN",
        "conceptId": "C43409",
        "decode": "Melanesian"
      },
      {
        "submissionValue": "MICRONESIAN",
        "conceptId": "C43402",
        "decode": "Micronesian"
      },
      {
        "submissionValue": "MIDDLE EASTERN OR NORTH AFRICAN",
        "conceptId": "C43866",
        "decode": "Middle Eastern or North African"
      },
      {
        "submissionValue": "MIDDLE EASTERN",
        "conceptId": "C77820",
        "decode": "Middle Eastern"
      },
      {
        "submissionValue": "MONGOLIAN",
        "conceptId": "C43864",
        "decode": "Mongolian"
      },
      {
        "submissionValue": "MOROCCAN",
        "conceptId": "C205489",
        "decode": "Moroccan"
      },
      {
        "submissionValue": "NAMIBIAN",
        "conceptId": "C43833",
        "decode": "Namibian"
      },
      {
        "submissionValue": "NATIVE HAWAIIAN OR PACIFIC ISLANDER",
        "conceptId": "C41219",
        "decode": "Native Hawaiian or Other Pacific Islander"
      },
      {
        "submissionValue": "NATIVE HAWAIIAN",
        "conceptId": "C43394",
        "decode": "Native Hawaiian"
      },
      {
        "submissionValue": "NEPALESE",
        "conceptId": "C43720",
        "decode": "Nepalese"
      },
      {
        "submissionValue": "NIGERIAN",
        "conceptId": "C43834",
        "decode": "Nigerian"
      },
      {
        "submissionValue": "NORTH AFRICAN",
        "conceptId": "C77813",
        "decode": "North Coast of Africa"
      },
      {
        "submissionValue": "NORTHERN EUROPEAN",
        "conceptId": "C77814",
        "decode": "Northern European"
      },
      {
        "submissionValue": "NORWEGIAN",
        "conceptId": "C43862",
        "decode": "Norwegian"
      },
      {
        "submissionValue": "NOT REPORTED",
        "conceptId": "C43234",
        "decode": "Not Reported"
      },
      {
        "submissionValue": "OKINAWAN",
        "conceptId": "C43717",
        "decode": "Okinawan"
      },
      {
        "submissionValue": "OTHER PACIFIC ISLANDER",
        "conceptId": "C107602",
        "decode": "Other Pacific Islander"
      },
      {
        "submissionValue": "OTHER",
        "conceptId": "C17649",
        "decode": "Other"
      },
      {
        "submissionValue": "PAKISTANI",
        "conceptId": "C43427",
        "decode": "Pakistani"
      },
      {
        "submissionValue": "PALAUAN",
        "conceptId": "C43840",
        "decode": "Palauan"
      },
      {
        "submissionValue": "POLISH",
        "conceptId": "C43858",
        "decode": "Polish"
      },
      {
        "submissionValue": "POLYNESIAN",
        "conceptId": "C43405",
        "decode": "Polynesian"
      },
      {
        "submissionValue": "RUSSIAN",
        "conceptId": "C43860",
        "decode": "Russian"
      },
      {
        "submissionValue": "SALVADORAN",
        "conceptId": "C205485",
        "decode": "Salvadoran"
      },
      {
        "submissionValue": "SAMOAN",
        "conceptId": "C43407",
        "decode": "Samoan"
      },
      {
        "submissionValue": "SCOTTISH",
        "conceptId": "C43859",
        "decode": "Scottish"
      },
      {
        "submissionValue": "SIBERIAN ESKIMO",
        "conceptId": "C44269",
        "decode": "Siberian Eskimo"
      },
      {
        "submissionValue": "SINGAPOREAN",
        "conceptId": "C43721",
        "decode": "Singaporean"
      },
      {
        "submissionValue": "SOMALI",
        "conceptId": "C205482",
        "decode": "Somali"
      },
      {
        "submissionValue": "SOUTH AMERICAN INDIAN",
        "conceptId": "C44953",
        "decode": "South American Indian"
      },
      {
        "submissionValue": "SOUTH ASIAN",
        "conceptId": "C41263",
        "decode": "South Asian"
      },
      {
        "submissionValue": "SOUTHEAST ASIAN",
        "conceptId": "C126533",
        "decode": "Southeast Asian"
      },
      {
        "submissionValue": "SOUTHERN AFRICAN COLOURED",
        "conceptId": "C156583",
        "decode": "Southern African Coloured"
      },
      {
        "submissionValue": "SRI LANKAN",
        "conceptId": "C43672",
        "decode": "Sri Lankan"
      },
      {
        "submissionValue": "SUB-SAHARAN AFRICAN",
        "conceptId": "C153346",
        "decode": "Sub-Saharan African"
      },
      {
        "submissionValue": "SURINAMESE",
        "conceptId": "C209674",
        "decode": "Surinamese"
      },
      {
        "submissionValue": "SWEDISH",
        "conceptId": "C43861",
        "decode": "Swedish"
      },
      {
        "submissionValue": "SYRIAN",
        "conceptId": "C43873",
        "decode": "Syrian"
      },
      {
        "submissionValue": "TAHITIAN",
        "conceptId": "C43406",
        "decode": "Tahitian"
      },
      {
        "submissionValue": "TAIWANESE",
        "conceptId": "C43675",
        "decode": "Taiwanese"
      },
      {
        "submissionValue": "THAI",
        "conceptId": "C43400",
        "decode": "Thai"
      },
      {
        "submissionValue": "TOBAGOAN",
        "conceptId": "C43827",
        "decode": "Tobagoan"
      },
      {
        "submissionValue": "TONGAN",
        "conceptId": "C43408",
        "decode": "Tongan"
      },
      {
        "submissionValue": "TRINIDADIAN",
        "conceptId": "C43828",
        "decode": "Trinidadian"
      },
      {
        "submissionValue": "UNKNOWN",
        "conceptId": "C17998",
        "decode": "Unknown"
      },
      {
        "submissionValue": "VIETNAMESE",
        "conceptId": "C43396",
        "decode": "Vietnamese"
      },
      {
        "submissionValue": "WEST ASIAN",
        "conceptId": "C153343",
        "decode": "Western Asian"
      },
      {
        "submissionValue": "WEST INDIAN",
        "conceptId": "C43829",
        "decode": "West Indian"
      },
      {
        "submissionValue": "WESTERN EUROPEAN",
        "conceptId": "C77817",
        "decode": "Western European"
      },
      {
        "submissionValue": "WHITE CARIBBEAN",
        "conceptId": "C77816",
        "decode": "White Caribbean"
      },
      {
        "submissionValue": "WHITE CENTRAL AMERICAN",
        "conceptId": "C128993",
        "decode": "White Central American"
      },
      {
        "submissionValue": "WHITE SOUTH AMERICAN",
        "conceptId": "C128994",
        "decode": "White South American"
      },
      {
        "submissionValue": "WHITE",
        "conceptId": "C41261",
        "decode": "White"
      },
      {
        "submissionValue": "YEMENI",
        "conceptId": "C205490",
        "decode": "Yemeni"
      },
      {
        "submissionValue": "YUPIK ESKIMO",
        "conceptId": "C44270",
        "decode": "Yupik Eskimo"
      },
      {
        "submissionValue": "ZAIREAN",
        "conceptId": "C43835",
        "decode": "Zairean"
      }
    ]
  },
  "C66742": {
    "conceptId": "C66742",
    "name": "No Yes Response",
    "extensible": "false",
    "package": "sdtmct-2026-03-27",
    "terms": [
      {
        "submissionValue": "N",
        "conceptId": "C49487",
        "decode": "No"
      },
      {
        "submissionValue": "NA",
        "conceptId": "C48660",
        "decode": "Not Applicable"
      },
      {
        "submissionValue": "U",
        "conceptId": "C17998",
        "decode": "Unknown"
      },
      {
        "submissionValue": "Y",
        "conceptId": "C49488",
        "decode": "Yes"
      }
    ]
  },
  "C66797": {
    "conceptId": "C66797",
    "name": "Category of Inclusion/Exclusion",
    "extensible": "false",
    "package": "sdtmct-2026-03-27",
    "terms": [
      {
        "submissionValue": "EXCLUSION",
        "conceptId": "C25370",
        "decode": "Exclusion Criteria"
      },
      {
        "submissionValue": "INCLUSION",
        "conceptId": "C25532",
        "decode": "Inclusion Criteria"
      }
    ]
  },
  "C124301": {
    "conceptId": "C124301",
    "name": "Medical History Event Date Type",
    "extensible": "true",
    "package": "sdtmct-2026-03-27",
    "terms": [
      {
        "submissionValue": "CURRENT DISEASE PRESENTATION",
        "conceptId": "C99554",
        "decode": "Disease Presentation"
      },
      {
        "submissionValue": "DIAGNOSIS",
        "conceptId": "C15220",
        "decode": "Diagnosis Assessment"
      },
      {
        "submissionValue": "DISEASE BECAME ADVANCED",
        "conceptId": "C221639",
        "decode": "Advanced Disease"
      },
      {
        "submissionValue": "DISEASE BECAME LOCALLY ADVANCED",
        "conceptId": "C221638",
        "decode": "Locally Advanced Disease"
      },
      {
        "submissionValue": "DISEASE BECAME METASTATIC",
        "conceptId": "C40557",
        "decode": "Metastatic Disease"
      },
      {
        "submissionValue": "DISEASE RELAPSE",
        "conceptId": "C38155",
        "decode": "Recurrent Disease"
      },
      {
        "submissionValue": "DISEASE TRANSFORMATION",
        "conceptId": "C123583",
        "decode": "Disease Transformation"
      },
      {
        "submissionValue": "EPISODE",
        "conceptId": "C75539",
        "decode": "Episode"
      },
      {
        "submissionValue": "EXACERBATION",
        "conceptId": "C124138",
        "decode": "Exacerbation"
      },
      {
        "submissionValue": "FLARE",
        "conceptId": "C113680",
        "decode": "Flare-up"
      },
      {
        "submissionValue": "INITIAL DIAGNOSIS",
        "conceptId": "C156813",
        "decode": "Initial Diagnosis"
      },
      {
        "submissionValue": "INITIAL DISEASE RELAPSE",
        "conceptId": "C123399",
        "decode": "First Relapse"
      },
      {
        "submissionValue": "MOST RECENT DIAGNOSIS",
        "conceptId": "C184685",
        "decode": "Most Recent Diagnosis"
      },
      {
        "submissionValue": "MOST RECENT DISEASE RELAPSE",
        "conceptId": "C204662",
        "decode": "Most Recent Disease Relapse"
      },
      {
        "submissionValue": "MOST RECENT EPISODE",
        "conceptId": "C191305",
        "decode": "Most Recent Episode"
      },
      {
        "submissionValue": "MOST RECENT EXACERBATION",
        "conceptId": "C214706",
        "decode": "Most Recent Exacerbation"
      },
      {
        "submissionValue": "PATHOLOGICAL DIAGNOSIS",
        "conceptId": "C178004",
        "decode": "Pathological Diagnosis"
      },
      {
        "submissionValue": "PROGRESSION",
        "conceptId": "C17747",
        "decode": "Disease Progression"
      },
      {
        "submissionValue": "RESTAGING",
        "conceptId": "C132008",
        "decode": "Restaging"
      },
      {
        "submissionValue": "STAGING",
        "conceptId": "C15608",
        "decode": "Staging"
      },
      {
        "submissionValue": "SYMPTOM ONSET",
        "conceptId": "C124353",
        "decode": "Symptom Onset"
      }
    ]
  },
  "C74456": {
    "conceptId": "C74456",
    "name": "Anatomical Location",
    "extensible": "true",
    "package": "sdtmct-2026-03-27",
    "terms": [
      {
        "submissionValue": "5TH LUMBAR SPINOUS PROCESS",
        "conceptId": "C116163",
        "decode": "Fifth Lumbar Spinous Process"
      },
      {
        "submissionValue": "ABDOMINAL AORTA",
        "conceptId": "C32038",
        "decode": "Abdominal Aorta"
      },
      {
        "submissionValue": "ABDOMINAL CAVITY",
        "conceptId": "C12664",
        "decode": "Abdomen"
      },
      {
        "submissionValue": "ABDOMINAL LYMPH NODE",
        "conceptId": "C12360",
        "decode": "Abdominal Lymph Node"
      },
      {
        "submissionValue": "ABDOMINAL QUADRANT, LEFT LOWER",
        "conceptId": "C151399",
        "decode": "Left Lower Quadrant of Abdomen"
      },
      {
        "submissionValue": "ABDOMINAL QUADRANT, LEFT UPPER",
        "conceptId": "C151397",
        "decode": "Left Upper Quadrant of Abdomen"
      },
      {
        "submissionValue": "ABDOMINAL QUADRANT, RIGHT LOWER",
        "conceptId": "C151400",
        "decode": "Right Lower Quadrant of Abdomen"
      },
      {
        "submissionValue": "ABDOMINAL QUADRANT, RIGHT UPPER",
        "conceptId": "C151398",
        "decode": "Right Upper Quadrant of Abdomen"
      },
      {
        "submissionValue": "ABDOMINAL REGION",
        "conceptId": "C139186",
        "decode": "Abdominal Region"
      },
      {
        "submissionValue": "ABDOMINAL SKIN",
        "conceptId": "C52758",
        "decode": "Abdominal Skin"
      },
      {
        "submissionValue": "ABDOMINAL WALL SOFT TISSUE",
        "conceptId": "C225624",
        "decode": "Abdominal Wall Soft Tissue"
      },
      {
        "submissionValue": "ABDOMINAL WALL",
        "conceptId": "C77608",
        "decode": "Abdominal Wall"
      },
      {
        "submissionValue": "ABDUCENS NERVE",
        "conceptId": "C12665",
        "decode": "Abducens Nerve"
      },
      {
        "submissionValue": "ABDUCTOR DIGITI MINIMI MUSCLE OF THE HAND",
        "conceptId": "C165996",
        "decode": "Abductor Digiti Minimi Muscle of the Hand"
      },
      {
        "submissionValue": "ABDUCTOR DIGITI QUINTI MUSCLE",
        "conceptId": "C163504",
        "decode": "Abductor Digiti Minimi Muscle"
      },
      {
        "submissionValue": "ABDUCTOR HALLUCIS MUSCLE",
        "conceptId": "C163505",
        "decode": "Abductor Hallucis Muscle"
      },
      {
        "submissionValue": "ABDUCTOR POLLICIS BREVIS MUSCLE",
        "conceptId": "C165997",
        "decode": "Abductor Pollicis Brevis Muscle"
      },
      {
        "submissionValue": "ABDUCTOR POLLICIS LONGUS MUSCLE",
        "conceptId": "C52888",
        "decode": "Abductor Pollicis Longus"
      },
      {
        "submissionValue": "ACCESSORY RENAL ARTERY",
        "conceptId": "C116183",
        "decode": "Accessory Renal Artery"
      },
      {
        "submissionValue": "ACETABULUM",
        "conceptId": "C32042",
        "decode": "Acetabulum"
      },
      {
        "submissionValue": "ACHILLES TENDON",
        "conceptId": "C32043",
        "decode": "Achilles Tendon"
      },
      {
        "submissionValue": "ACROMIOCLAVICULAR JOINT",
        "conceptId": "C32047",
        "decode": "Acromioclavicular Joint"
      },
      {
        "submissionValue": "ACROMION",
        "conceptId": "C32048",
        "decode": "Acromion"
      },
      {
        "submissionValue": "ACUTE MARGINAL ARTERY",
        "conceptId": "C102285",
        "decode": "Acute Marginal Artery"
      },
      {
        "submissionValue": "ADDUCTOR BREVIS MUSCLE",
        "conceptId": "C163506",
        "decode": "Adductor Brevis Muscle"
      },
      {
        "submissionValue": "ADDUCTOR HALLUCIS MUSCLE, OBLIQUE HEAD",
        "conceptId": "C163507",
        "decode": "Oblique Head of Adductor Hallucis Muscle"
      },
      {
        "submissionValue": "ADDUCTOR HALLUCIS MUSCLE, TRANSVERSE HEAD",
        "conceptId": "C163508",
        "decode": "Transverse Head of Adductor Hallucis Muscle"
      },
      {
        "submissionValue": "ADDUCTOR LONGUS MUSCLE",
        "conceptId": "C163509",
        "decode": "Adductor Longus Muscle"
      },
      {
        "submissionValue": "ADDUCTOR MAGNUS MUSCLE",
        "conceptId": "C163510",
        "decode": "Adductor Magnus Muscle"
      },
      {
        "submissionValue": "ADDUCTOR POLLICIS MUSCLE",
        "conceptId": "C186100",
        "decode": "Adductor Pollicis Muscle"
      },
      {
        "submissionValue": "ADRENAL GLAND",
        "conceptId": "C12666",
        "decode": "Adrenal Gland"
      },
      {
        "submissionValue": "ALISPHENOID PROCESS",
        "conceptId": "C129430",
        "decode": "Sphenoid Wing"
      },
      {
        "submissionValue": "ALVEOLAR PROCESS",
        "conceptId": "C89749",
        "decode": "Alveolar Ridge"
      },
      {
        "submissionValue": "ALVEOLUS",
        "conceptId": "C12986",
        "decode": "Alveolus"
      },
      {
        "submissionValue": "AMNIOTIC FLUID",
        "conceptId": "C13188",
        "decode": "Amniotic Fluid"
      },
      {
        "submissionValue": "AMPULLA OF VATER",
        "conceptId": "C13011",
        "decode": "Ampulla of Vater"
      },
      {
        "submissionValue": "AMYGDALA",
        "conceptId": "C12440",
        "decode": "Amygdala"
      },
      {
        "submissionValue": "ANAL CANAL",
        "conceptId": "C12375",
        "decode": "Anal Canal"
      },
      {
        "submissionValue": "ANAL REGION",
        "conceptId": "C32069",
        "decode": "Anal Region"
      },
      {
        "submissionValue": "ANAL SPHINCTER",
        "conceptId": "C165177",
        "decode": "Anal Sphincter"
      },
      {
        "submissionValue": "ANAL VERGE",
        "conceptId": "C25419",
        "decode": "Anal Margin"
      },
      {
        "submissionValue": "ANASTOMOSIS",
        "conceptId": "C15609",
        "decode": "Anastomosis"
      },
      {
        "submissionValue": "ANCONEUS MUSCLE",
        "conceptId": "C186101",
        "decode": "Anconeus Muscle"
      },
      {
        "submissionValue": "ANGULAR GYRUS",
        "conceptId": "C32077",
        "decode": "Angular Gyrus"
      },
      {
        "submissionValue": "ANKLE DORSIFLEXOR MUSCLES",
        "conceptId": "C204661",
        "decode": "Ankle Dorsiflexor Muscles"
      },
      {
        "submissionValue": "ANKLE JOINT ANTERIOR EXTENSOR TENDONS",
        "conceptId": "C161390",
        "decode": "Ankle Joint Anterior Extensor Tendons"
      },
      {
        "submissionValue": "ANKLE JOINT ANTERIOR FLEXOR TENDONS",
        "conceptId": "C161389",
        "decode": "Ankle Joint Anterior Flexor Tendons"
      },
      {
        "submissionValue": "ANKLE JOINT",
        "conceptId": "C32078",
        "decode": "Ankle Joint"
      },
      {
        "submissionValue": "ANKLE MORTISE",
        "conceptId": "C117868",
        "decode": "Ankle Mortise"
      },
      {
        "submissionValue": "ANORECTUM",
        "conceptId": "C186102",
        "decode": "Anorectal Area"
      },
      {
        "submissionValue": "ANTECUBITAL FOSSA",
        "conceptId": "C103238",
        "decode": "Antecubital Fossa"
      },
      {
        "submissionValue": "ANTERIOR CEREBRAL ARTERY",
        "conceptId": "C12829",
        "decode": "Anterior Cerebral Artery"
      },
      {
        "submissionValue": "ANTERIOR CINGULATE CORTEX",
        "conceptId": "C139185",
        "decode": "Anterior Cingulate Cortex"
      },
      {
        "submissionValue": "ANTERIOR CINGULATE GYRUS",
        "conceptId": "C187996",
        "decode": "Anterior Cingulate Gyrus"
      },
      {
        "submissionValue": "ANTERIOR HORN OF THE LATERAL VENTRICLE",
        "conceptId": "C32637",
        "decode": "Frontal Horn of the Lateral Ventricle"
      },
      {
        "submissionValue": "ANTERIOR INFERIOR CEREBELLAR ARTERY",
        "conceptId": "C32091",
        "decode": "Anterior Inferior Cerebellar Artery"
      },
      {
        "submissionValue": "ANTERIOR MEDIASTINAL LYMPH NODE",
        "conceptId": "C32097",
        "decode": "Anterior Mediastinal Lymph Node"
      },
      {
        "submissionValue": "ANTERIOR SUPERIOR ILIAC SPINE",
        "conceptId": "C139187",
        "decode": "Anterior Superior Iliac Spine"
      },
      {
        "submissionValue": "ANTERIOR TIBIAL ARTERY",
        "conceptId": "C12825",
        "decode": "Anterior Tibial Artery"
      },
      {
        "submissionValue": "ANTERIOR TIBIAL VEIN",
        "conceptId": "C32115",
        "decode": "Anterior Tibial Vein"
      },
      {
        "submissionValue": "ANTRUM PYLORI",
        "conceptId": "C12259",
        "decode": "Antrum Pylori"
      },
      {
        "submissionValue": "ANUS",
        "conceptId": "C43362",
        "decode": "Anus"
      },
      {
        "submissionValue": "AORTA",
        "conceptId": "C12669",
        "decode": "Aorta"
      },
      {
        "submissionValue": "AORTIC ARCH",
        "conceptId": "C32123",
        "decode": "Aortic Arch"
      },
      {
        "submissionValue": "AORTIC BODY",
        "conceptId": "C97112",
        "decode": "Aortic Body"
      },
      {
        "submissionValue": "AORTIC VALVE ANNULUS",
        "conceptId": "C130167",
        "decode": "Aortic Valve Annulus"
      },
      {
        "submissionValue": "AORTIC VALVE",
        "conceptId": "C12670",
        "decode": "Aortic Valve"
      },
      {
        "submissionValue": "AORTIC VALVE, LEFT CORONARY CUSP",
        "conceptId": "C127638",
        "decode": "Left Coronary Cusp of the Aortic Valve"
      },
      {
        "submissionValue": "AORTIC VALVE, NON-CORONARY CUSP",
        "conceptId": "C127639",
        "decode": "Non-Coronary Cusp of the Aortic Valve"
      },
      {
        "submissionValue": "AORTIC VALVE, RIGHT CORONARY CUSP",
        "conceptId": "C127640",
        "decode": "Right Coronary Cusp of the Aortic Valve"
      },
      {
        "submissionValue": "AORTICOPULMONARY SEPTUM",
        "conceptId": "C186103",
        "decode": "Aorticopulmonary Septum"
      },
      {
        "submissionValue": "AORTO-ILIAC PERIPHERAL ARTERY",
        "conceptId": "C116166",
        "decode": "Aortoiliac Artery Segment"
      },
      {
        "submissionValue": "AORTOCAVAL LYMPH NODE",
        "conceptId": "C118775",
        "decode": "Aortocaval Lymph Node"
      },
      {
        "submissionValue": "AORTOPULMONARY WINDOW LYMPH NODE",
        "conceptId": "C116165",
        "decode": "Aortopulmonary Window Lymph Node"
      },
      {
        "submissionValue": "APPENDICEAL TIP",
        "conceptId": "C83470",
        "decode": "Appendiceal Tip"
      },
      {
        "submissionValue": "APPENDICULAR SKELETON",
        "conceptId": "C49477",
        "decode": "Appendicular Skeleton"
      },
      {
        "submissionValue": "APPENDIX",
        "conceptId": "C12380",
        "decode": "Appendix"
      },
      {
        "submissionValue": "AQUEOUS HUMOR",
        "conceptId": "C13190",
        "decode": "Aqueous Humor"
      },
      {
        "submissionValue": "ARM SKIN",
        "conceptId": "C52754",
        "decode": "Arm Skin"
      },
      {
        "submissionValue": "ARM",
        "conceptId": "C32141",
        "decode": "Arm"
      },
      {
        "submissionValue": "ARTERY",
        "conceptId": "C12372",
        "decode": "Artery"
      },
      {
        "submissionValue": "ASCENDING AORTA",
        "conceptId": "C32150",
        "decode": "Ascending Aorta"
      },
      {
        "submissionValue": "ASCENDING AORTA, AORTIC ROOT",
        "conceptId": "C127641",
        "decode": "Aortic Root"
      },
      {
        "submissionValue": "ASCENDING AORTA, SINOTUBULAR JUNCTION",
        "conceptId": "C127642",
        "decode": "Sinotubular Junction"
      },
      {
        "submissionValue": "ASCENDING AORTA, SINUS OF VALSALVA",
        "conceptId": "C33557",
        "decode": "Sinus of Valsalva"
      },
      {
        "submissionValue": "ATRIOVENTRICULAR SEPTUM",
        "conceptId": "C186104",
        "decode": "Atrioventricular Septum"
      },
      {
        "submissionValue": "ATRIOVENTRICULAR VALVE",
        "conceptId": "C176322",
        "decode": "Atrioventricular Valve"
      },
      {
        "submissionValue": "AUDITORY OSSICLE",
        "conceptId": "C32164",
        "decode": "Auditory Ossicle"
      },
      {
        "submissionValue": "AXIAL SKELETON",
        "conceptId": "C32172",
        "decode": "Axial Skeleton"
      },
      {
        "submissionValue": "AXILLA",
        "conceptId": "C12674",
        "decode": "Axilla"
      },
      {
        "submissionValue": "AXILLARY ARTERY",
        "conceptId": "C32169",
        "decode": "Axillary Artery"
      },
      {
        "submissionValue": "AXILLARY LYMPH NODE LEVEL I",
        "conceptId": "C123461",
        "decode": "Axillary Lymph Node Level I"
      },
      {
        "submissionValue": "AXILLARY LYMPH NODE LEVEL II",
        "conceptId": "C123462",
        "decode": "Axillary Lymph Node Level II"
      },
      {
        "submissionValue": "AXILLARY LYMPH NODE LEVEL III",
        "conceptId": "C123463",
        "decode": "Axillary Lymph Node Level III"
      },
      {
        "submissionValue": "AXILLARY LYMPH NODE",
        "conceptId": "C12904",
        "decode": "Axillary Lymph Node"
      },
      {
        "submissionValue": "AXILLARY VEIN",
        "conceptId": "C32171",
        "decode": "Axillary Vein"
      },
      {
        "submissionValue": "AZYGOS VEIN",
        "conceptId": "C53029",
        "decode": "Azygos Vein"
      },
      {
        "submissionValue": "BACK",
        "conceptId": "C13062",
        "decode": "Back"
      },
      {
        "submissionValue": "BASAL GANGLIA",
        "conceptId": "C12447",
        "decode": "Basal Ganglia"
      },
      {
        "submissionValue": "BASE OF THE TONGUE",
        "conceptId": "C12228",
        "decode": "Base of Tongue"
      },
      {
        "submissionValue": "BASILAR ARTERY",
        "conceptId": "C12676",
        "decode": "Basilar Artery"
      },
      {
        "submissionValue": "BASILIC VEIN",
        "conceptId": "C32197",
        "decode": "Basilic Vein"
      },
      {
        "submissionValue": "BASIOCCIPITAL BONE",
        "conceptId": "C186105",
        "decode": "Basioccipital Bone"
      },
      {
        "submissionValue": "BASISPHENOID BONE",
        "conceptId": "C186106",
        "decode": "Basisphenoid Bone"
      },
      {
        "submissionValue": "BICEPS BRACHII MUSCLE",
        "conceptId": "C32200",
        "decode": "Biceps Brachii"
      },
      {
        "submissionValue": "BICEPS BRACHII TENDONS",
        "conceptId": "C214698",
        "decode": "Biceps Brachii Tendon"
      },
      {
        "submissionValue": "BICEPS FEMORIS MUSCLE",
        "conceptId": "C53147",
        "decode": "Biceps Femoris"
      },
      {
        "submissionValue": "BICEPS FEMORIS MUSCLE, LONG HEAD",
        "conceptId": "C221582",
        "decode": "Long Head of Biceps Femoris Muscle"
      },
      {
        "submissionValue": "BICEPS FEMORIS MUSCLE, SHORT HEAD",
        "conceptId": "C221583",
        "decode": "Short Head of Biceps Femoris Muscle"
      },
      {
        "submissionValue": "BILE DUCT",
        "conceptId": "C12376",
        "decode": "Bile Duct"
      },
      {
        "submissionValue": "BILIARY TRACT",
        "conceptId": "C12678",
        "decode": "Biliary Tract"
      },
      {
        "submissionValue": "BLADDER WALL",
        "conceptId": "C48941",
        "decode": "Bladder Wall"
      },
      {
        "submissionValue": "BLADDER",
        "conceptId": "C12414",
        "decode": "Bladder"
      },
      {
        "submissionValue": "BLADDER, APEX",
        "conceptId": "C198292",
        "decode": "Bladder Apex"
      },
      {
        "submissionValue": "BLADDER, BODY",
        "conceptId": "C198293",
        "decode": "Bladder Body"
      },
      {
        "submissionValue": "BLADDER, DOME",
        "conceptId": "C12332",
        "decode": "Dome of the Bladder"
      },
      {
        "submissionValue": "BLADDER, FUNDUS",
        "conceptId": "C48939",
        "decode": "Bladder Fundus"
      },
      {
        "submissionValue": "BLADDER, NECK",
        "conceptId": "C12336",
        "decode": "Bladder Neck"
      },
      {
        "submissionValue": "BLADDER, TRIGONE",
        "conceptId": "C12331",
        "decode": "Bladder Trigone"
      },
      {
        "submissionValue": "BLOOD VESSEL",
        "conceptId": "C12679",
        "decode": "Blood Vessel"
      },
      {
        "submissionValue": "BLOOD",
        "conceptId": "C12434",
        "decode": "Blood"
      },
      {
        "submissionValue": "BODY OF STOMACH",
        "conceptId": "C12258",
        "decode": "Body of Stomach"
      },
      {
        "submissionValue": "BODY",
        "conceptId": "C13041",
        "decode": "Body"
      },
      {
        "submissionValue": "BONE MARROW",
        "conceptId": "C12431",
        "decode": "Bone Marrow"
      },
      {
        "submissionValue": "BONE",
        "conceptId": "C12366",
        "decode": "Bone"
      },
      {
        "submissionValue": "BRACHIAL ARTERY",
        "conceptId": "C12681",
        "decode": "Brachial Artery"
      },
      {
        "submissionValue": "BRACHIAL LYMPH NODE",
        "conceptId": "C92221",
        "decode": "Brachial Lymph Node"
      },
      {
        "submissionValue": "BRACHIAL PLEXUS",
        "conceptId": "C12682",
        "decode": "Brachial Plexus"
      },
      {
        "submissionValue": "BRACHIAL VEIN",
        "conceptId": "C12883",
        "decode": "Brachial Vein"
      },
      {
        "submissionValue": "BRACHIALIS MUSCLE",
        "conceptId": "C53149",
        "decode": "Brachialis"
      },
      {
        "submissionValue": "BRACHIOCEPHALIC ARTERY",
        "conceptId": "C32814",
        "decode": "Innominate Artery"
      },
      {
        "submissionValue": "BRACHIORADIALIS MUSCLE",
        "conceptId": "C150849",
        "decode": "Brachioradialis Muscle"
      },
      {
        "submissionValue": "BRAIN STEM",
        "conceptId": "C12441",
        "decode": "Brain Stem"
      },
      {
        "submissionValue": "BRAIN VENTRICLE",
        "conceptId": "C12356",
        "decode": "Brain Ventricle"
      },
      {
        "submissionValue": "BRAIN VENTRICLE, LATERAL",
        "conceptId": "C12834",
        "decode": "Lateral Ventricle"
      },
      {
        "submissionValue": "BRAIN",
        "conceptId": "C12439",
        "decode": "Brain"
      },
      {
        "submissionValue": "BRAIN, EXTERNAL CAPSULE",
        "conceptId": "C32550",
        "decode": "External Capsule"
      },
      {
        "submissionValue": "BRAIN, FOURTH VENTRICLE",
        "conceptId": "C12828",
        "decode": "Fourth Ventricle"
      },
      {
        "submissionValue": "BRAIN, INTERNAL CAPSULE",
        "conceptId": "C13082",
        "decode": "Internal Capsule"
      },
      {
        "submissionValue": "BRAIN, PERIVENTRICULAR REGION",
        "conceptId": "C132390",
        "decode": "Periventricular Region"
      },
      {
        "submissionValue": "BRAIN, THIRD VENTRICLE",
        "conceptId": "C12827",
        "decode": "Third Ventricle"
      },
      {
        "submissionValue": "BREAST",
        "conceptId": "C12971",
        "decode": "Breast"
      },
      {
        "submissionValue": "BROAD LIGAMENT",
        "conceptId": "C12318",
        "decode": "Broad Ligament"
      },
      {
        "submissionValue": "BRODMANN AREA 10",
        "conceptId": "C221585",
        "decode": "Brodmann Area 10"
      },
      {
        "submissionValue": "BRODMANN AREA 8",
        "conceptId": "C221584",
        "decode": "Brodmann Area 8"
      },
      {
        "submissionValue": "BRONCHIAL STUMP",
        "conceptId": "C186107",
        "decode": "Bronchial Stump"
      },
      {
        "submissionValue": "BRONCHIOLE",
        "conceptId": "C12684",
        "decode": "Bronchiole"
      },
      {
        "submissionValue": "BRONCHUS",
        "conceptId": "C12683",
        "decode": "Bronchus"
      },
      {
        "submissionValue": "BUCCAL LYMPH NODE",
        "conceptId": "C154770",
        "decode": "Buccal Lymph Node"
      },
      {
        "submissionValue": "BUCCAL MUCOSA",
        "conceptId": "C12505",
        "decode": "Buccal Mucosa"
      },
      {
        "submissionValue": "BULBAR CONJUNCTIVA",
        "conceptId": "C12902",
        "decode": "Bulbar Conjunctiva"
      },
      {
        "submissionValue": "BUTTOCK",
        "conceptId": "C89806",
        "decode": "Buttock"
      },
      {
        "submissionValue": "C1 VERTEBRA",
        "conceptId": "C32239",
        "decode": "C1 Vertebra"
      },
      {
        "submissionValue": "C2 DERMATOME",
        "conceptId": "C225625",
        "decode": "C2 Dermatome"
      },
      {
        "submissionValue": "C2 VERTEBRA",
        "conceptId": "C32240",
        "decode": "C2 Vertebra"
      },
      {
        "submissionValue": "C3 DERMATOME",
        "conceptId": "C225626",
        "decode": "C3 Dermatome"
      },
      {
        "submissionValue": "C3 VERTEBRA",
        "conceptId": "C32241",
        "decode": "C3 Vertebra"
      },
      {
        "submissionValue": "C4 DERMATOME",
        "conceptId": "C225627",
        "decode": "C4 Dermatome"
      },
      {
        "submissionValue": "C4 VERTEBRA",
        "conceptId": "C32242",
        "decode": "C4 Vertebra"
      },
      {
        "submissionValue": "C5 DERMATOME",
        "conceptId": "C225628",
        "decode": "C5 Dermatome"
      },
      {
        "submissionValue": "C5 VERTEBRA",
        "conceptId": "C32243",
        "decode": "C5 Vertebra"
      },
      {
        "submissionValue": "C6 DERMATOME",
        "conceptId": "C225629",
        "decode": "C6 Dermatome"
      },
      {
        "submissionValue": "C6 VERTEBRA",
        "conceptId": "C32244",
        "decode": "C6 Vertebra"
      },
      {
        "submissionValue": "C7 DERMATOME",
        "conceptId": "C225630",
        "decode": "C7 Dermatome"
      },
      {
        "submissionValue": "C7 VERTEBRA",
        "conceptId": "C32245",
        "decode": "C7 Vertebra"
      },
      {
        "submissionValue": "C8 DERMATOME",
        "conceptId": "C225631",
        "decode": "C8 Dermatome"
      },
      {
        "submissionValue": "CALCANEAL TUBEROSITY",
        "conceptId": "C142295",
        "decode": "Calcaneal Tuberosity"
      },
      {
        "submissionValue": "CALCANEUS",
        "conceptId": "C32250",
        "decode": "Calcaneum"
      },
      {
        "submissionValue": "CALCARINE SULCUS",
        "conceptId": "C32252",
        "decode": "Calcarine Sulcus"
      },
      {
        "submissionValue": "CALF MUSCULAR VEIN",
        "conceptId": "C154703",
        "decode": "Calf Muscular Vein"
      },
      {
        "submissionValue": "CALF",
        "conceptId": "C93027",
        "decode": "Calf"
      },
      {
        "submissionValue": "CANINE TOOTH",
        "conceptId": "C32258",
        "decode": "Canine Tooth"
      },
      {
        "submissionValue": "CAPITATE BONE",
        "conceptId": "C12856",
        "decode": "Capitate Bone"
      },
      {
        "submissionValue": "CAPITATE-HAMATE JOINT",
        "conceptId": "C139188",
        "decode": "Capitate-Hamate Joint"
      },
      {
        "submissionValue": "CAPITATE-LUNATE JOINT",
        "conceptId": "C139189",
        "decode": "Capitate-Lunate Joint"
      },
      {
        "submissionValue": "CARDIAC VALVE",
        "conceptId": "C12729",
        "decode": "Cardiac Valve"
      },
      {
        "submissionValue": "CARDIAC WALL",
        "conceptId": "C139201",
        "decode": "Cardiac Wall"
      },
      {
        "submissionValue": "CARDIOPHRENIC LYMPH NODE",
        "conceptId": "C121555",
        "decode": "Cardiophrenic Lymph Node"
      },
      {
        "submissionValue": "CARDIOVASCULAR SYSTEM",
        "conceptId": "C12686",
        "decode": "Cardiovascular System"
      },
      {
        "submissionValue": "CARINA",
        "conceptId": "C25264",
        "decode": "Carina"
      },
      {
        "submissionValue": "CAROTID ARTERY",
        "conceptId": "C12687",
        "decode": "Common Carotid Artery"
      },
      {
        "submissionValue": "CAROTID BODY",
        "conceptId": "C66852",
        "decode": "Carotid Body"
      },
      {
        "submissionValue": "CARPAL BONE",
        "conceptId": "C12688",
        "decode": "Carpal Bone"
      },
      {
        "submissionValue": "CARPOMETACARPAL JOINT 1",
        "conceptId": "C103912",
        "decode": "Carpometacarpal Joint 1"
      },
      {
        "submissionValue": "CARPOMETACARPAL JOINT 2",
        "conceptId": "C103913",
        "decode": "Carpometacarpal Joint 2"
      },
      {
        "submissionValue": "CARPOMETACARPAL JOINT 3",
        "conceptId": "C103914",
        "decode": "Carpometacarpal Joint 3"
      },
      {
        "submissionValue": "CARPOMETACARPAL JOINT 4",
        "conceptId": "C103915",
        "decode": "Carpometacarpal Joint 4"
      },
      {
        "submissionValue": "CARPOMETACARPAL JOINT 5",
        "conceptId": "C103916",
        "decode": "Carpometacarpal Joint 5"
      },
      {
        "submissionValue": "CARPOMETACARPAL JOINT",
        "conceptId": "C32265",
        "decode": "Carpometacarpal Joint"
      },
      {
        "submissionValue": "CARTILAGE",
        "conceptId": "C12373",
        "decode": "Cartilage"
      },
      {
        "submissionValue": "CAUDAL VERTEBRA",
        "conceptId": "C176319",
        "decode": "Caudal Vertebra"
      },
      {
        "submissionValue": "CAUDATE NUCLEUS",
        "conceptId": "C12451",
        "decode": "Caudate Nucleus"
      },
      {
        "submissionValue": "CECUM",
        "conceptId": "C12381",
        "decode": "Cecum"
      },
      {
        "submissionValue": "CELIAC ARTERY",
        "conceptId": "C52846",
        "decode": "Celiac Artery"
      },
      {
        "submissionValue": "CELIAC LYMPH NODE",
        "conceptId": "C65166",
        "decode": "Celiac Lymph Node"
      },
      {
        "submissionValue": "CENTRAL NERVOUS SYSTEM",
        "conceptId": "C12438",
        "decode": "Central Nervous System"
      },
      {
        "submissionValue": "CEPHALIC VEIN",
        "conceptId": "C32286",
        "decode": "Cephalic Vein"
      },
      {
        "submissionValue": "CEREBELLAR LOBE",
        "conceptId": "C186108",
        "decode": "Cerebellar Lobe"
      },
      {
        "submissionValue": "CEREBELLAR PEDUNCLE",
        "conceptId": "C88147",
        "decode": "Cerebellar Peduncle"
      },
      {
        "submissionValue": "CEREBELLAR VERMIS",
        "conceptId": "C33866",
        "decode": "Vermis"
      },
      {
        "submissionValue": "CEREBELLUM",
        "conceptId": "C12445",
        "decode": "Cerebellum"
      },
      {
        "submissionValue": "CEREBRAL ARTERY",
        "conceptId": "C12691",
        "decode": "Cerebral Artery"
      },
      {
        "submissionValue": "CEREBRAL CORTEX",
        "conceptId": "C12443",
        "decode": "Cerebral Cortex"
      },
      {
        "submissionValue": "CEREBRAL HEMISPHERE, LEFT",
        "conceptId": "C32955",
        "decode": "Left Cerebral Hemisphere"
      },
      {
        "submissionValue": "CEREBRAL HEMISPHERE, RIGHT",
        "conceptId": "C33472",
        "decode": "Right Cerebral Hemisphere"
      },
      {
        "submissionValue": "CEREBRAL PEDUNCLE",
        "conceptId": "C32291",
        "decode": "Cerebral Peduncle"
      },
      {
        "submissionValue": "CEREBRAL SUBCORTEX",
        "conceptId": "C98712",
        "decode": "Cerebral Subcortex"
      },
      {
        "submissionValue": "CEREBRAL VEIN",
        "conceptId": "C53037",
        "decode": "Cerebral Vein"
      },
      {
        "submissionValue": "CEREBRUM",
        "conceptId": "C12351",
        "decode": "Cerebral Hemisphere"
      },
      {
        "submissionValue": "CERVICAL LYMPH NODE LEVEL II",
        "conceptId": "C202889",
        "decode": "Neck Lymph Node Boundary Level II"
      },
      {
        "submissionValue": "CERVICAL LYMPH NODE LEVEL III",
        "conceptId": "C132499",
        "decode": "Neck Lymph Node Boundary Level III"
      },
      {
        "submissionValue": "CERVICAL LYMPH NODE LEVEL IV",
        "conceptId": "C132500",
        "decode": "Neck Lymph Node Boundary Level IV"
      },
      {
        "submissionValue": "CERVICAL LYMPH NODE LEVEL V",
        "conceptId": "C202890",
        "decode": "Neck Lymph Node Boundary Level V"
      },
      {
        "submissionValue": "CERVICAL LYMPH NODE LEVEL VI",
        "conceptId": "C132514",
        "decode": "Anterior Compartment Lymph Node Group (Level VI)"
      },
      {
        "submissionValue": "CERVICAL LYMPH NODE",
        "conceptId": "C32298",
        "decode": "Cervical Lymph Node"
      },
      {
        "submissionValue": "CERVICAL SPINE",
        "conceptId": "C69313",
        "decode": "Cervical Spine"
      },
      {
        "submissionValue": "CERVICAL VERTEBRA",
        "conceptId": "C12693",
        "decode": "Cervical Vertebra"
      },
      {
        "submissionValue": "CERVICOVAGINAL REGION",
        "conceptId": "C178002",
        "decode": "Cervicovaginal Region"
      },
      {
        "submissionValue": "CERVIX UTERI",
        "conceptId": "C12311",
        "decode": "Cervix Uteri"
      },
      {
        "submissionValue": "CHEEK",
        "conceptId": "C13070",
        "decode": "Cheek"
      },
      {
        "submissionValue": "CHEST WALL",
        "conceptId": "C62484",
        "decode": "Chest Wall"
      },
      {
        "submissionValue": "CHEST",
        "conceptId": "C25389",
        "decode": "Chest"
      },
      {
        "submissionValue": "CHIN",
        "conceptId": "C81169",
        "decode": "Mentum"
      },
      {
        "submissionValue": "CHORDAE TENDINEAE",
        "conceptId": "C32307",
        "decode": "Chordae Tendineae"
      },
      {
        "submissionValue": "CHOROID PLEXUS",
        "conceptId": "C12694",
        "decode": "Choroid Plexus"
      },
      {
        "submissionValue": "CHOROID",
        "conceptId": "C12344",
        "decode": "Choroid"
      },
      {
        "submissionValue": "CILIARY BODY",
        "conceptId": "C12345",
        "decode": "Ciliary Body"
      },
      {
        "submissionValue": "CINGULATE CORTEX",
        "conceptId": "C52713",
        "decode": "Cingulate Cortex"
      },
      {
        "submissionValue": "CIRCUMFLEX ARTERY AV GROOVE CONTINUATION ARTERY",
        "conceptId": "C102287",
        "decode": "Circumflex Artery AV Groove Continuation Artery"
      },
      {
        "submissionValue": "CIRCUMFLEX, OBTUSE MARGINALS, LEFT POSTEROLATERAL AND LEFT POSTERIOR DESCENDING ARTERY BRANCHES",
        "conceptId": "C102286",
        "decode": "Circumflex Artery and its Branches"
      },
      {
        "submissionValue": "CLAVICLE",
        "conceptId": "C12695",
        "decode": "Clavicle"
      },
      {
        "submissionValue": "CLAW",
        "conceptId": "C176323",
        "decode": "Claw"
      },
      {
        "submissionValue": "CLITORIS",
        "conceptId": "C12308",
        "decode": "Clitoris"
      },
      {
        "submissionValue": "CLIVUS",
        "conceptId": "C12494",
        "decode": "Clivus"
      },
      {
        "submissionValue": "COCCYGEAL VERTEBRA",
        "conceptId": "C32334",
        "decode": "Coccygeal Vertebra"
      },
      {
        "submissionValue": "COCCYX",
        "conceptId": "C12696",
        "decode": "Coccyx"
      },
      {
        "submissionValue": "COLON LYMPH NODE",
        "conceptId": "C176317",
        "decode": "Colon Lymph Node"
      },
      {
        "submissionValue": "COLON WALL",
        "conceptId": "C176315",
        "decode": "Colon Wall"
      },
      {
        "submissionValue": "COLON",
        "conceptId": "C12382",
        "decode": "Colon"
      },
      {
        "submissionValue": "COLON, ASCENDING",
        "conceptId": "C12265",
        "decode": "Ascending Colon"
      },
      {
        "submissionValue": "COLON, DESCENDING",
        "conceptId": "C12268",
        "decode": "Descending Colon"
      },
      {
        "submissionValue": "COLON, HEPATIC FLEXURE",
        "conceptId": "C12266",
        "decode": "Hepatic Flexure"
      },
      {
        "submissionValue": "COLON, LEFT",
        "conceptId": "C33929",
        "decode": "Left Colon"
      },
      {
        "submissionValue": "COLON, RECTOSIGMOID",
        "conceptId": "C103438",
        "decode": "Rectosigmoid Colon"
      },
      {
        "submissionValue": "COLON, RIGHT",
        "conceptId": "C12383",
        "decode": "Right Colon"
      },
      {
        "submissionValue": "COLON, SIGMOID",
        "conceptId": "C12384",
        "decode": "Sigmoid Colon"
      },
      {
        "submissionValue": "COLON, SPLENIC FLEXURE",
        "conceptId": "C12267",
        "decode": "Splenic Flexure"
      },
      {
        "submissionValue": "COLON, TRANSVERSE",
        "conceptId": "C12385",
        "decode": "Transverse Colon"
      },
      {
        "submissionValue": "COLONIC MUCOSA",
        "conceptId": "C164003",
        "decode": "Colonic Mucosa"
      },
      {
        "submissionValue": "COMMON BILE DUCT",
        "conceptId": "C12698",
        "decode": "Common Bile Duct"
      },
      {
        "submissionValue": "COMMON FEMORAL ARTERY",
        "conceptId": "C32354",
        "decode": "Common Femoral Artery"
      },
      {
        "submissionValue": "COMMON FEMORAL VEIN",
        "conceptId": "C154771",
        "decode": "Common Femoral Vein"
      },
      {
        "submissionValue": "COMMON ILIAC ARTERY",
        "conceptId": "C32357",
        "decode": "Common Iliac Artery"
      },
      {
        "submissionValue": "COMMON ILIAC LYMPH NODE",
        "conceptId": "C103384",
        "decode": "Common Iliac Lymph Node"
      },
      {
        "submissionValue": "COMMON PALMAR DIGITAL ARTERY",
        "conceptId": "C52744",
        "decode": "Common Palmar Digital Artery"
      },
      {
        "submissionValue": "CONJUNCTIVA",
        "conceptId": "C12341",
        "decode": "Conjunctiva"
      },
      {
        "submissionValue": "CORNEA",
        "conceptId": "C12342",
        "decode": "Cornea"
      },
      {
        "submissionValue": "CORNEAL ENDOTHELIUM",
        "conceptId": "C12707",
        "decode": "Corneal Endothelium"
      },
      {
        "submissionValue": "CORNEAL EPITHELIUM",
        "conceptId": "C12928",
        "decode": "Corneal Epithelium"
      },
      {
        "submissionValue": "CORNEAL STROMA",
        "conceptId": "C12699",
        "decode": "Corneal Stroma"
      },
      {
        "submissionValue": "CORONARY ARTERY",
        "conceptId": "C12843",
        "decode": "Coronary Artery"
      },
      {
        "submissionValue": "CORONARY ARTERY, ANTERIOR DESCENDING",
        "conceptId": "C32089",
        "decode": "Anterior Descending Coronary Artery"
      },
      {
        "submissionValue": "CORONARY ARTERY, LEFT",
        "conceptId": "C12872",
        "decode": "Left Coronary Artery"
      },
      {
        "submissionValue": "CORONARY ARTERY, RIGHT",
        "conceptId": "C12875",
        "decode": "Right Coronary Artery"
      },
      {
        "submissionValue": "CORONARY SINUS",
        "conceptId": "C32378",
        "decode": "Coronary Sinus"
      },
      {
        "submissionValue": "CORONARY VEIN",
        "conceptId": "C12882",
        "decode": "Coronary Vein"
      },
      {
        "submissionValue": "CORPUS CALLOSUM",
        "conceptId": "C12446",
        "decode": "Corpus Callosum"
      },
      {
        "submissionValue": "CORPUS CALLOSUM, BODY",
        "conceptId": "C32216",
        "decode": "Body of the Corpus Callosum"
      },
      {
        "submissionValue": "CORPUS CALLOSUM, GENU",
        "conceptId": "C32675",
        "decode": "Genu of the Corpus Callosum"
      },
      {
        "submissionValue": "CORPUS CALLOSUM, SPLENIUM",
        "conceptId": "C33610",
        "decode": "Splenium of the Corpus Callosum"
      },
      {
        "submissionValue": "CORPUS LUTEUM",
        "conceptId": "C26465",
        "decode": "Corpus Luteum"
      },
      {
        "submissionValue": "CORPUS STRIATUM",
        "conceptId": "C12448",
        "decode": "Corpus Striatum"
      },
      {
        "submissionValue": "CORPUS UTERI",
        "conceptId": "C12316",
        "decode": "Corpus Uteri"
      },
      {
        "submissionValue": "CORRUGATOR SUPERCILII MUSCLE",
        "conceptId": "C163511",
        "decode": "Corrugator Supercilii Muscle"
      },
      {
        "submissionValue": "COSTAL CARTILAGE",
        "conceptId": "C32391",
        "decode": "Costal Cartilage"
      },
      {
        "submissionValue": "COSTOCHONDRAL JOINT 1",
        "conceptId": "C102288",
        "decode": "Costochondral Joint 1"
      },
      {
        "submissionValue": "COSTOCHONDRAL JOINT 7",
        "conceptId": "C102289",
        "decode": "Costochondral Joint 7"
      },
      {
        "submissionValue": "CRANIAL CAVITY",
        "conceptId": "C77638",
        "decode": "Cranial Cavity"
      },
      {
        "submissionValue": "CRANIAL NERVE",
        "conceptId": "C12700",
        "decode": "Cranial Nerve"
      },
      {
        "submissionValue": "CUBOID BONE",
        "conceptId": "C32414",
        "decode": "Cuboid Bone"
      },
      {
        "submissionValue": "DELTOID MUSCLE",
        "conceptId": "C32446",
        "decode": "Deltoid"
      },
      {
        "submissionValue": "DENTAL ARCH",
        "conceptId": "C174321",
        "decode": "Dental Arch"
      },
      {
        "submissionValue": "DERMAL PAPILLAE OF THE FACE",
        "conceptId": "C186109",
        "decode": "Dermal Papillae of the Face"
      },
      {
        "submissionValue": "DESCENDING AORTA",
        "conceptId": "C32455",
        "decode": "Descending Aorta"
      },
      {
        "submissionValue": "DIAPHRAGM",
        "conceptId": "C12702",
        "decode": "Diaphragm"
      },
      {
        "submissionValue": "DIAPHRAGMATIC LYMPH NODE",
        "conceptId": "C132391",
        "decode": "Diaphragmatic Lymph Node"
      },
      {
        "submissionValue": "DIGIT",
        "conceptId": "C40186",
        "decode": "Digit"
      },
      {
        "submissionValue": "DIGITAL ARTERY",
        "conceptId": "C177918",
        "decode": "Digital Artery"
      },
      {
        "submissionValue": "DISTAL CIRCUMFLEX ARTERY",
        "conceptId": "C102290",
        "decode": "Distal Circumflex Artery"
      },
      {
        "submissionValue": "DISTAL COMMON BILE DUCT",
        "conceptId": "C60801",
        "decode": "Distal Common Bile Duct"
      },
      {
        "submissionValue": "DISTAL EXTRAHEPATIC BILE DUCT REGION",
        "conceptId": "C174320",
        "decode": "Distal Extrahepatic Bile Duct Region"
      },
      {
        "submissionValue": "DISTAL FEMUR R1",
        "conceptId": "C139208",
        "decode": "Distal Femur R1"
      },
      {
        "submissionValue": "DISTAL INTERPHALANGEAL JOINT 2 OF THE FOOT",
        "conceptId": "C114198",
        "decode": "Distal Interphalangeal Joint 2 of the Foot"
      },
      {
        "submissionValue": "DISTAL INTERPHALANGEAL JOINT 2 OF THE HAND",
        "conceptId": "C114188",
        "decode": "Distal Interphalangeal Joint 2 of the Hand"
      },
      {
        "submissionValue": "DISTAL INTERPHALANGEAL JOINT 2",
        "conceptId": "C102291",
        "decode": "Distal Interphalangeal Joint 2"
      },
      {
        "submissionValue": "DISTAL INTERPHALANGEAL JOINT 3 OF THE FOOT",
        "conceptId": "C114199",
        "decode": "Distal Interphalangeal Joint 3 of the Foot"
      },
      {
        "submissionValue": "DISTAL INTERPHALANGEAL JOINT 3 OF THE HAND",
        "conceptId": "C114189",
        "decode": "Distal Interphalangeal Joint 3 of the Hand"
      },
      {
        "submissionValue": "DISTAL INTERPHALANGEAL JOINT 3",
        "conceptId": "C102292",
        "decode": "Distal Interphalangeal Joint 3"
      },
      {
        "submissionValue": "DISTAL INTERPHALANGEAL JOINT 4 OF THE FOOT",
        "conceptId": "C114275",
        "decode": "Distal Interphalangeal Joint 4 of the Foot"
      },
      {
        "submissionValue": "DISTAL INTERPHALANGEAL JOINT 4 OF THE HAND",
        "conceptId": "C114273",
        "decode": "Distal Interphalangeal Joint 4 of the Hand"
      },
      {
        "submissionValue": "DISTAL INTERPHALANGEAL JOINT 4",
        "conceptId": "C102293",
        "decode": "Distal Interphalangeal Joint 4"
      },
      {
        "submissionValue": "DISTAL INTERPHALANGEAL JOINT 5 OF THE FOOT",
        "conceptId": "C114276",
        "decode": "Distal Interphalangeal Joint 5 of the Foot"
      },
      {
        "submissionValue": "DISTAL INTERPHALANGEAL JOINT 5 OF THE HAND",
        "conceptId": "C114274",
        "decode": "Distal Interphalangeal Joint 5 of the Hand"
      },
      {
        "submissionValue": "DISTAL INTERPHALANGEAL JOINT 5",
        "conceptId": "C102294",
        "decode": "Distal Interphalangeal Joint 5"
      },
      {
        "submissionValue": "DISTAL LAD ARTERY",
        "conceptId": "C102295",
        "decode": "Distal Left Anterior Descending Artery"
      },
      {
        "submissionValue": "DISTAL PHALANX 2 OF THE HAND",
        "conceptId": "C139190",
        "decode": "Hand Digit 2 Distal Phalanx"
      },
      {
        "submissionValue": "DISTAL PHALANX 3 OF THE HAND",
        "conceptId": "C139191",
        "decode": "Hand Digit 3 Distal Phalanx"
      },
      {
        "submissionValue": "DISTAL PHALANX 4 OF THE HAND",
        "conceptId": "C139192",
        "decode": "Hand Digit 4 Distal Phalanx"
      },
      {
        "submissionValue": "DISTAL PHALANX 5 OF THE HAND",
        "conceptId": "C139193",
        "decode": "Hand Digit 5 Distal Phalanx"
      },
      {
        "submissionValue": "DISTAL RADIOULNAR JOINT",
        "conceptId": "C139194",
        "decode": "Distal Radioulnar Joint"
      },
      {
        "submissionValue": "DISTAL RIGHT CORONARY ARTERY CONDUIT",
        "conceptId": "C102296",
        "decode": "Distal Right Coronary Artery Conduit"
      },
      {
        "submissionValue": "DISTANT LYMPH NODE",
        "conceptId": "C106042",
        "decode": "Distant Lymph Node"
      },
      {
        "submissionValue": "DORSAL MOTOR NUCLEUS",
        "conceptId": "C12934",
        "decode": "Dorsal Motor Nucleus"
      },
      {
        "submissionValue": "DORSALIS PEDIS ARTERY",
        "conceptId": "C32478",
        "decode": "Dorsalis Pedis Artery"
      },
      {
        "submissionValue": "DUCTUS ARTERIOSUS",
        "conceptId": "C52854",
        "decode": "Ductus Arteriosus"
      },
      {
        "submissionValue": "DUODENUM",
        "conceptId": "C12263",
        "decode": "Duodenum"
      },
      {
        "submissionValue": "DURA MATER",
        "conceptId": "C32488",
        "decode": "Dura Mater"
      },
      {
        "submissionValue": "DURAL VENOUS SINUS",
        "conceptId": "C102627",
        "decode": "Dural Venous Sinus"
      },
      {
        "submissionValue": "EAR",
        "conceptId": "C12394",
        "decode": "Ear"
      },
      {
        "submissionValue": "EAR, INNER",
        "conceptId": "C12499",
        "decode": "Inner Ear"
      },
      {
        "submissionValue": "EAR, OUTER",
        "conceptId": "C12292",
        "decode": "External Ear"
      },
      {
        "submissionValue": "EARLOBE",
        "conceptId": "C32999",
        "decode": "Lobule of the Auricle"
      },
      {
        "submissionValue": "ELBOW EXTENSOR MUSCLES",
        "conceptId": "C163512",
        "decode": "Elbow Extensors"
      },
      {
        "submissionValue": "ELBOW FLEXOR MUSCLES",
        "conceptId": "C163513",
        "decode": "Elbow Flexors"
      },
      {
        "submissionValue": "ELBOW JOINT TENDONS",
        "conceptId": "C214697",
        "decode": "Elbow Joint Tendon"
      },
      {
        "submissionValue": "ELBOW JOINT",
        "conceptId": "C32497",
        "decode": "Elbow Joint"
      },
      {
        "submissionValue": "ENDOCARDIUM",
        "conceptId": "C13004",
        "decode": "Endocardium"
      },
      {
        "submissionValue": "ENDOCERVIX",
        "conceptId": "C12309",
        "decode": "Endocervix"
      },
      {
        "submissionValue": "ENDOMETRIAL CAVITY",
        "conceptId": "C32514",
        "decode": "Endometrial Cavity"
      },
      {
        "submissionValue": "ENDOMETRIUM",
        "conceptId": "C12313",
        "decode": "Endometrium"
      },
      {
        "submissionValue": "ENTORHINAL CORTEX",
        "conceptId": "C97338",
        "decode": "Entorhinal Cortex"
      },
      {
        "submissionValue": "EPICARDIUM",
        "conceptId": "C13164",
        "decode": "Epicardium"
      },
      {
        "submissionValue": "EPICONDYLE",
        "conceptId": "C69300",
        "decode": "Epicondyle"
      },
      {
        "submissionValue": "EPIDIDYMIS",
        "conceptId": "C12328",
        "decode": "Epididymis"
      },
      {
        "submissionValue": "EPIDURAL SPACE",
        "conceptId": "C41449",
        "decode": "Epidural Spinal Space"
      },
      {
        "submissionValue": "EPIGASTRIC LYMPH NODE",
        "conceptId": "C139195",
        "decode": "Epigastric Lymph Node"
      },
      {
        "submissionValue": "EPIGASTRIC REGION",
        "conceptId": "C32525",
        "decode": "Epigastric Region"
      },
      {
        "submissionValue": "EPIGLOTTIS",
        "conceptId": "C12709",
        "decode": "Epiglottis"
      },
      {
        "submissionValue": "EPITROCHLEAR LYMPH NODE",
        "conceptId": "C98182",
        "decode": "Epitrochlear Lymph Node"
      },
      {
        "submissionValue": "ESOPHAGEAL LYMPH NODE",
        "conceptId": "C139196",
        "decode": "Esophageal Lymph Node"
      },
      {
        "submissionValue": "ESOPHAGEAL MUCOSA",
        "conceptId": "C32538",
        "decode": "Esophageal Mucosa"
      },
      {
        "submissionValue": "ESOPHAGUS",
        "conceptId": "C12389",
        "decode": "Esophagus"
      },
      {
        "submissionValue": "ESOPHAGUS, ABDOMINAL",
        "conceptId": "C12252",
        "decode": "Abdominal Esophagus"
      },
      {
        "submissionValue": "ESOPHAGUS, CERVICAL",
        "conceptId": "C12250",
        "decode": "Cervical Esophagus"
      },
      {
        "submissionValue": "ESOPHAGUS, LOWER THIRD",
        "conceptId": "C12255",
        "decode": "Lower Third of the Esophagus"
      },
      {
        "submissionValue": "ESOPHAGUS, MIDDLE THIRD",
        "conceptId": "C12254",
        "decode": "Middle Third of the Esophagus"
      },
      {
        "submissionValue": "ESOPHAGUS, THORACIC LOWER",
        "conceptId": "C198294",
        "decode": "Lower Thoracic Esophagus"
      },
      {
        "submissionValue": "ESOPHAGUS, THORACIC MID",
        "conceptId": "C198295",
        "decode": "Middle Thoracic Esophagus"
      },
      {
        "submissionValue": "ESOPHAGUS, THORACIC UPPER",
        "conceptId": "C198296",
        "decode": "Upper Thoracic Esophagus"
      },
      {
        "submissionValue": "ESOPHAGUS, THORACIC",
        "conceptId": "C12251",
        "decode": "Thoracic Esophagus"
      },
      {
        "submissionValue": "ESOPHAGUS, UPPER THIRD",
        "conceptId": "C12253",
        "decode": "Upper Third of the Esophagus"
      },
      {
        "submissionValue": "ETHMOID BONE",
        "conceptId": "C12711",
        "decode": "Ethmoid Bone"
      },
      {
        "submissionValue": "ETHMOID SINUS",
        "conceptId": "C12276",
        "decode": "Ethmoid Sinus"
      },
      {
        "submissionValue": "EXOCCIPITAL BONE",
        "conceptId": "C186110",
        "decode": "Exoccipital Bone"
      },
      {
        "submissionValue": "EXTENSOR CARPI RADIALIS MUSCLES",
        "conceptId": "C187833",
        "decode": "Extensor Carpi Radialis Muscles"
      },
      {
        "submissionValue": "EXTENSOR CARPI ULNARIS MUSCLE",
        "conceptId": "C52914",
        "decode": "Extensor Carpi Ulnaris"
      },
      {
        "submissionValue": "EXTENSOR DIGITI MINIMI MUSCLE",
        "conceptId": "C186111",
        "decode": "Extensor Digiti Minimi Muscle"
      },
      {
        "submissionValue": "EXTENSOR DIGITORUM BREVIS MUSCLE",
        "conceptId": "C163514",
        "decode": "Extensor Digitorum Brevis Muscle"
      },
      {
        "submissionValue": "EXTENSOR DIGITORUM LONGUS MUSCLE",
        "conceptId": "C52918",
        "decode": "Extensor Digitorum Longus"
      },
      {
        "submissionValue": "EXTENSOR DIGITORUM MUSCLE",
        "conceptId": "C52916",
        "decode": "Extensor Digitorum Communis"
      },
      {
        "submissionValue": "EXTENSOR HALLUCIS BREVIS MUSCLE",
        "conceptId": "C163515",
        "decode": "Extensor Hallucis Brevis Muscle"
      },
      {
        "submissionValue": "EXTENSOR HALLUCIS LONGUS MUSCLE",
        "conceptId": "C186112",
        "decode": "Extensor Hallucis Longus Muscle"
      },
      {
        "submissionValue": "EXTENSOR INDICIS PROPRIUS MUSCLE",
        "conceptId": "C186113",
        "decode": "Extensor Indicis Proprius Muscle"
      },
      {
        "submissionValue": "EXTENSOR POLLICIS BREVIS MUSCLE",
        "conceptId": "C186114",
        "decode": "Extensor Pollicis Brevis Muscle"
      },
      {
        "submissionValue": "EXTENSOR POLLICIS LONGUS MUSCLE",
        "conceptId": "C186115",
        "decode": "Extensor Pollicis Longus Muscle"
      },
      {
        "submissionValue": "EXTERNAL ACOUSTIC MEATUS",
        "conceptId": "C12498",
        "decode": "External Acoustic Meatus"
      },
      {
        "submissionValue": "EXTERNAL ILIAC ARTERY",
        "conceptId": "C32558",
        "decode": "External Iliac Artery"
      },
      {
        "submissionValue": "EXTERNAL ILIAC LYMPH NODE",
        "conceptId": "C88143",
        "decode": "External Iliac Lymph Node"
      },
      {
        "submissionValue": "EXTRAABDOMINAL LYMPH NODE",
        "conceptId": "C165584",
        "decode": "Extra-Abdominal Lymph Node"
      },
      {
        "submissionValue": "EXTRAHEPATIC BILE DUCT",
        "conceptId": "C32573",
        "decode": "Extrahepatic Bile Duct"
      },
      {
        "submissionValue": "EXTRAHEPATIC PERIHILAR BILE DUCT REGION",
        "conceptId": "C174319",
        "decode": "Extrahepatic Perihilar Bile Duct Region"
      },
      {
        "submissionValue": "EXTRANODAL REGION",
        "conceptId": "C202395",
        "decode": "Extranodal Region"
      },
      {
        "submissionValue": "EXTRAOCULAR MUSCLE",
        "conceptId": "C33199",
        "decode": "Extraocular Muscle"
      },
      {
        "submissionValue": "EYE BULGE",
        "conceptId": "C176325",
        "decode": "Eye Bulge"
      },
      {
        "submissionValue": "EYE",
        "conceptId": "C12401",
        "decode": "Eye"
      },
      {
        "submissionValue": "EYE, ANTERIOR CHAMBER",
        "conceptId": "C12667",
        "decode": "Anterior Chamber of the Eye"
      },
      {
        "submissionValue": "EYE, ANTERIOR SEGMENT",
        "conceptId": "C12668",
        "decode": "Anterior Eye Segment"
      },
      {
        "submissionValue": "EYE, VITREOUS CHAMBER",
        "conceptId": "C33885",
        "decode": "Vitreous Chamber"
      },
      {
        "submissionValue": "EYEBROW",
        "conceptId": "C32575",
        "decode": "Eyebrow"
      },
      {
        "submissionValue": "EYELASH",
        "conceptId": "C32576",
        "decode": "Eyelash"
      },
      {
        "submissionValue": "EYELID",
        "conceptId": "C12713",
        "decode": "Eyelid"
      },
      {
        "submissionValue": "FACE",
        "conceptId": "C13071",
        "decode": "Face"
      },
      {
        "submissionValue": "FACET JOINT",
        "conceptId": "C32577",
        "decode": "Facet Joint"
      },
      {
        "submissionValue": "FACIAL BONE",
        "conceptId": "C63706",
        "decode": "Facial Bone"
      },
      {
        "submissionValue": "FACIAL MUSCLE",
        "conceptId": "C13073",
        "decode": "Facial Muscle"
      },
      {
        "submissionValue": "FACIAL NERVE",
        "conceptId": "C12714",
        "decode": "Facial Nerve"
      },
      {
        "submissionValue": "FALCIFORM LIGAMENT",
        "conceptId": "C32582",
        "decode": "Falciform Ligament"
      },
      {
        "submissionValue": "FALLOPIAN TUBE",
        "conceptId": "C12403",
        "decode": "Fallopian Tube"
      },
      {
        "submissionValue": "FASCIA",
        "conceptId": "C13108",
        "decode": "Fascia"
      },
      {
        "submissionValue": "FAT PAD",
        "conceptId": "C176326",
        "decode": "Fat Pad"
      },
      {
        "submissionValue": "FAUCES",
        "conceptId": "C181454",
        "decode": "Oropharyngeal Isthmus"
      },
      {
        "submissionValue": "FEMALE GENITALIA",
        "conceptId": "C61600",
        "decode": "Female Genitalia"
      },
      {
        "submissionValue": "FEMALE REPRODUCTIVE SYSTEM",
        "conceptId": "C12402",
        "decode": "Female Reproductive System"
      },
      {
        "submissionValue": "FEMORAL ARTERY",
        "conceptId": "C12715",
        "decode": "Femoral Artery"
      },
      {
        "submissionValue": "FEMORAL CONDYLE",
        "conceptId": "C114186",
        "decode": "Femoral Condyle"
      },
      {
        "submissionValue": "FEMORAL HEAD",
        "conceptId": "C32718",
        "decode": "Head of the Femur"
      },
      {
        "submissionValue": "FEMORAL LYMPH NODE",
        "conceptId": "C98183",
        "decode": "Femoral Lymph Node"
      },
      {
        "submissionValue": "FEMORAL NECK",
        "conceptId": "C61563",
        "decode": "Femoral Neck"
      },
      {
        "submissionValue": "FEMORAL VEIN",
        "conceptId": "C12716",
        "decode": "Femoral Vein"
      },
      {
        "submissionValue": "FEMORO-POPLITEAL PERIPHERAL ARTERY",
        "conceptId": "C116167",
        "decode": "Femoropopliteal Artery Segment"
      },
      {
        "submissionValue": "FEMUR SHAFT",
        "conceptId": "C96209",
        "decode": "Femoral Shaft"
      },
      {
        "submissionValue": "FEMUR",
        "conceptId": "C12717",
        "decode": "Femur"
      },
      {
        "submissionValue": "FIBULA SHAFT",
        "conceptId": "C120670",
        "decode": "Fibular Shaft"
      },
      {
        "submissionValue": "FIBULA",
        "conceptId": "C12718",
        "decode": "Fibula"
      },
      {
        "submissionValue": "FIBULAR VEIN",
        "conceptId": "C154772",
        "decode": "Fibular Vein"
      },
      {
        "submissionValue": "FINGER EXTENSOR MUSCLES",
        "conceptId": "C163516",
        "decode": "Finger Extensors"
      },
      {
        "submissionValue": "FINGER EXTENSOR TENDONS",
        "conceptId": "C161384",
        "decode": "Finger Extensor Tendons"
      },
      {
        "submissionValue": "FINGER FLEXOR MUSCLES",
        "conceptId": "C163517",
        "decode": "Finger Flexors"
      },
      {
        "submissionValue": "FINGER FLEXOR TENDONS",
        "conceptId": "C161383",
        "decode": "Finger Flexor Tendons"
      },
      {
        "submissionValue": "FINGER",
        "conceptId": "C32608",
        "decode": "Finger"
      },
      {
        "submissionValue": "FINGERNAIL",
        "conceptId": "C32609",
        "decode": "Fingernail"
      },
      {
        "submissionValue": "FINGERTIP",
        "conceptId": "C187834",
        "decode": "Fingertip"
      },
      {
        "submissionValue": "FIRST DIAGONAL BRANCH ARTERY",
        "conceptId": "C102297",
        "decode": "First Diagonal Branch Artery"
      },
      {
        "submissionValue": "FIRST DORSAL INTEROSSEOUS MUSCLE OF THE FOOT",
        "conceptId": "C139197",
        "decode": "First Dorsal Interosseous Muscle of the Foot"
      },
      {
        "submissionValue": "FIRST DORSAL INTEROSSEOUS MUSCLE OF THE HAND",
        "conceptId": "C139198",
        "decode": "First Dorsal Interosseous Muscle of the Hand"
      },
      {
        "submissionValue": "FIRST LEFT POSTEROLATERAL BRANCH ARTERY",
        "conceptId": "C102298",
        "decode": "First Left Posterolateral Branch Artery"
      },
      {
        "submissionValue": "FIRST OBTUSE MARGINAL BRANCH ARTERY",
        "conceptId": "C102299",
        "decode": "First Obtuse Marginal Branch Artery"
      },
      {
        "submissionValue": "FIRST RIGHT POSTEROLATERAL ARTERY",
        "conceptId": "C102300",
        "decode": "First Right Posterolateral Artery"
      },
      {
        "submissionValue": "FLANK",
        "conceptId": "C93028",
        "decode": "Flank"
      },
      {
        "submissionValue": "FLEXOR CARPI RADIALIS MUSCLE",
        "conceptId": "C53155",
        "decode": "Flexor Carpi Radialis"
      },
      {
        "submissionValue": "FLEXOR CARPI ULNARIS MUSCLE",
        "conceptId": "C53156",
        "decode": "Flexor Carpi Ulnaris"
      },
      {
        "submissionValue": "FLEXOR DIGITORUM BREVIS MUSCLE",
        "conceptId": "C163518",
        "decode": "Flexor Digitorum Brevis Muscle"
      },
      {
        "submissionValue": "FLEXOR DIGITORUM LONGUS MUSCLE",
        "conceptId": "C52921",
        "decode": "Flexor Digitorum Longus"
      },
      {
        "submissionValue": "FLEXOR DIGITORUM PROFUNDUS MUSCLE",
        "conceptId": "C52923",
        "decode": "Flexor Digitorum Profundus"
      },
      {
        "submissionValue": "FLEXOR DIGITORUM SUPERFICIALIS MUSCLE",
        "conceptId": "C150850",
        "decode": "Flexor Digitorum Superficialis Muscle"
      },
      {
        "submissionValue": "FLEXOR HALLUCIS BREVIS MUSCLE",
        "conceptId": "C165998",
        "decode": "Flexor Hallucis Brevis Muscle"
      },
      {
        "submissionValue": "FLEXOR HALLUCIS LONGUS MUSCLE",
        "conceptId": "C52925",
        "decode": "Flexor Hallucis Longus"
      },
      {
        "submissionValue": "FLEXOR POLLICIS BREVIS MUSCLE",
        "conceptId": "C186116",
        "decode": "Flexor Pollicis Brevis Muscle"
      },
      {
        "submissionValue": "FLEXOR POLLICIS LONGUS MUSCLE",
        "conceptId": "C150851",
        "decode": "Flexor Pollicis Longus Muscle"
      },
      {
        "submissionValue": "FLOOR OF MOUTH",
        "conceptId": "C54187",
        "decode": "Floor of Mouth"
      },
      {
        "submissionValue": "FONTANELLE",
        "conceptId": "C32621",
        "decode": "Fontanelle"
      },
      {
        "submissionValue": "FOOT DIGIT 1",
        "conceptId": "C52839",
        "decode": "Foot Digit 1"
      },
      {
        "submissionValue": "FOOT DIGIT 2",
        "conceptId": "C52840",
        "decode": "Foot Digit 2"
      },
      {
        "submissionValue": "FOOT DIGIT 3",
        "conceptId": "C52841",
        "decode": "Foot Digit 3"
      },
      {
        "submissionValue": "FOOT DIGIT 4",
        "conceptId": "C52842",
        "decode": "Foot Digit 4"
      },
      {
        "submissionValue": "FOOT DIGIT 5",
        "conceptId": "C52843",
        "decode": "Foot Digit 5"
      },
      {
        "submissionValue": "FOOT PHALANX",
        "conceptId": "C52772",
        "decode": "Foot Phalanx"
      },
      {
        "submissionValue": "FOOT",
        "conceptId": "C32622",
        "decode": "Foot"
      },
      {
        "submissionValue": "FOREARM PRONATOR MUSCLES",
        "conceptId": "C186117",
        "decode": "Forearm Pronator Muscles"
      },
      {
        "submissionValue": "FOREARM",
        "conceptId": "C32628",
        "decode": "Forearm"
      },
      {
        "submissionValue": "FOREBRAIN",
        "conceptId": "C40185",
        "decode": "Forebrain"
      },
      {
        "submissionValue": "FOREHEAD",
        "conceptId": "C89803",
        "decode": "Forehead"
      },
      {
        "submissionValue": "FORELIMB",
        "conceptId": "C176321",
        "decode": "Fore Limb"
      },
      {
        "submissionValue": "FOREPAW PHALANX",
        "conceptId": "C186118",
        "decode": "Forepaw Phalanx"
      },
      {
        "submissionValue": "FORESKIN",
        "conceptId": "C33049",
        "decode": "Male Prepuce"
      },
      {
        "submissionValue": "FOVEA",
        "conceptId": "C26463",
        "decode": "Fovea Centralis"
      },
      {
        "submissionValue": "FRONTAL BONE",
        "conceptId": "C32635",
        "decode": "Frontal Bone"
      },
      {
        "submissionValue": "FRONTAL CORTEX",
        "conceptId": "C177766",
        "decode": "Frontal Lobe Cortex"
      },
      {
        "submissionValue": "FRONTAL LOBE",
        "conceptId": "C12352",
        "decode": "Frontal Lobe"
      },
      {
        "submissionValue": "FRONTAL SINUS",
        "conceptId": "C12277",
        "decode": "Frontal Sinus"
      },
      {
        "submissionValue": "FRONTALIS MUSCLE",
        "conceptId": "C186119",
        "decode": "Frontalis Muscle"
      },
      {
        "submissionValue": "FRONTO-PARIETAL REGION",
        "conceptId": "C225632",
        "decode": "Fronto-Parietal Region"
      },
      {
        "submissionValue": "FRONTO-TEMPORAL REGION",
        "conceptId": "C225633",
        "decode": "Fronto-Temporal Region"
      },
      {
        "submissionValue": "FUNDUS OF THE EYE",
        "conceptId": "C135172",
        "decode": "Eye Fundus"
      },
      {
        "submissionValue": "FUNDUS OF THE STOMACH",
        "conceptId": "C12257",
        "decode": "Fundus of the Stomach"
      },
      {
        "submissionValue": "FUNDUS UTERI",
        "conceptId": "C12315",
        "decode": "Fundus Uteri"
      },
      {
        "submissionValue": "GALLBLADDER",
        "conceptId": "C12377",
        "decode": "Gallbladder"
      },
      {
        "submissionValue": "GANGLION",
        "conceptId": "C12719",
        "decode": "Ganglion"
      },
      {
        "submissionValue": "GASTRIC CARDIA",
        "conceptId": "C12256",
        "decode": "Gastric Cardia"
      },
      {
        "submissionValue": "GASTRIC CURVATURE LYMPH NODE",
        "conceptId": "C154773",
        "decode": "Gastric Curvature Lymph Node"
      },
      {
        "submissionValue": "GASTRIC MUCOSA",
        "conceptId": "C32656",
        "decode": "Gastric Mucosa"
      },
      {
        "submissionValue": "GASTROCNEMIUS MUSCLE",
        "conceptId": "C32666",
        "decode": "Gastrocnemius Muscle"
      },
      {
        "submissionValue": "GASTROCNEMIUS MUSCLE, LATERAL HEAD",
        "conceptId": "C163519",
        "decode": "Lateral Head of Gastrocnemius Muscle"
      },
      {
        "submissionValue": "GASTROCNEMIUS MUSCLE, MEDIAL HEAD",
        "conceptId": "C163520",
        "decode": "Medial Head of Gastrocnemius Muscle"
      },
      {
        "submissionValue": "GASTROESOPHAGEAL JUNCTION",
        "conceptId": "C32668",
        "decode": "Gastroesophageal Junction"
      },
      {
        "submissionValue": "GASTROINTESTINAL SYSTEM",
        "conceptId": "C12378",
        "decode": "Digestive System"
      },
      {
        "submissionValue": "GASTROINTESTINAL TRACT",
        "conceptId": "C34082",
        "decode": "Gastrointestinal Tract"
      },
      {
        "submissionValue": "GASTROINTESTINAL TRACT, LOWER",
        "conceptId": "C33010",
        "decode": "Lower Gastrointestinal Tract"
      },
      {
        "submissionValue": "GASTROINTESTINAL TRACT, LOWER, WALL",
        "conceptId": "C176241",
        "decode": "Lower Gastrointestinal Tract Wall"
      },
      {
        "submissionValue": "GASTROINTESTINAL TRACT, UPPER",
        "conceptId": "C33837",
        "decode": "Upper Gastrointestinal Tract"
      },
      {
        "submissionValue": "GASTROINTESTINAL TRACT, UPPER, WALL",
        "conceptId": "C176314",
        "decode": "Upper Gastrointestinal Tract Wall"
      },
      {
        "submissionValue": "GASTROINTESTINAL TRACT, WALL",
        "conceptId": "C176233",
        "decode": "Gastrointestinal Tract Wall"
      },
      {
        "submissionValue": "GENIOGLOSSUS MUSCLE",
        "conceptId": "C52928",
        "decode": "Genioglossus"
      },
      {
        "submissionValue": "GENITAL TUBERCLE",
        "conceptId": "C176324",
        "decode": "Genital Tubercle"
      },
      {
        "submissionValue": "GENITALIA",
        "conceptId": "C25177",
        "decode": "Genitalia"
      },
      {
        "submissionValue": "GENITOURINARY SYSTEM",
        "conceptId": "C12810",
        "decode": "Genitourinary System"
      },
      {
        "submissionValue": "GINGIVA",
        "conceptId": "C32677",
        "decode": "Gingiva"
      },
      {
        "submissionValue": "GINGIVAL MUCOSA",
        "conceptId": "C139199",
        "decode": "Gingival Mucosa"
      },
      {
        "submissionValue": "GLENOID FOSSA",
        "conceptId": "C32682",
        "decode": "Glenoid Fossa"
      },
      {
        "submissionValue": "GLOBUS PALLIDUS",
        "conceptId": "C12449",
        "decode": "Globus Pallidus"
      },
      {
        "submissionValue": "GLOMERULUS",
        "conceptId": "C13250",
        "decode": "Glomerulus"
      },
      {
        "submissionValue": "GLOSSOPHARYNGEAL NERVE",
        "conceptId": "C12723",
        "decode": "Glossopharyngeal Nerve"
      },
      {
        "submissionValue": "GLOTTIS",
        "conceptId": "C12724",
        "decode": "Glottis"
      },
      {
        "submissionValue": "GLOTTIS, ANTERIOR COMMISSURE",
        "conceptId": "C128630",
        "decode": "Laryngeal Anterior Commissure"
      },
      {
        "submissionValue": "GLOTTIS, POSTERIOR COMMISSURE",
        "conceptId": "C164282",
        "decode": "Laryngeal Posterior Commissure"
      },
      {
        "submissionValue": "GLUTEAL MUSCLE",
        "conceptId": "C78205",
        "decode": "Gluteal Muscle"
      },
      {
        "submissionValue": "GLUTEUS MAXIMUS",
        "conceptId": "C52560",
        "decode": "Gluteus Maximus"
      },
      {
        "submissionValue": "GLUTEUS MEDIUS",
        "conceptId": "C52933",
        "decode": "Gluteus Medius"
      },
      {
        "submissionValue": "GONAD",
        "conceptId": "C12725",
        "decode": "Gonad"
      },
      {
        "submissionValue": "GRACILIS MUSCLE",
        "conceptId": "C52935",
        "decode": "Gracilis"
      },
      {
        "submissionValue": "GREAT SAPHENOUS VEIN",
        "conceptId": "C33004",
        "decode": "Long Saphenous Vein"
      },
      {
        "submissionValue": "GREAT TROCHANTER",
        "conceptId": "C32698",
        "decode": "Great Trochanter"
      },
      {
        "submissionValue": "GREAT VESSELS",
        "conceptId": "C102955",
        "decode": "Great Blood Vessel"
      },
      {
        "submissionValue": "GREATER CURVATURE OF THE STOMACH",
        "conceptId": "C12262",
        "decode": "Greater Curvature of the Stomach"
      },
      {
        "submissionValue": "GUT-ASSOCIATED LYMPHOID TISSUE",
        "conceptId": "C12936",
        "decode": "Gut-Associated Lymphoid Tissue"
      },
      {
        "submissionValue": "HAIR BULB",
        "conceptId": "C32706",
        "decode": "Hair Bulb"
      },
      {
        "submissionValue": "HAIR FOLLICLE",
        "conceptId": "C13317",
        "decode": "Hair Follicle"
      },
      {
        "submissionValue": "HAIR ROOT",
        "conceptId": "C32711",
        "decode": "Hair Root"
      },
      {
        "submissionValue": "HAIR SHAFT",
        "conceptId": "C33543",
        "decode": "Shaft of the Hair"
      },
      {
        "submissionValue": "HAIR",
        "conceptId": "C32705",
        "decode": "Hair"
      },
      {
        "submissionValue": "HAMATE BONE",
        "conceptId": "C12860",
        "decode": "Hamate Bone"
      },
      {
        "submissionValue": "HAMSTRING MUSCLE",
        "conceptId": "C53042",
        "decode": "Hamstring"
      },
      {
        "submissionValue": "HAND DIGIT 1 ARTERY",
        "conceptId": "C178000",
        "decode": "Hand Digit 1 Artery"
      },
      {
        "submissionValue": "HAND DIGIT 1",
        "conceptId": "C52834",
        "decode": "Hand Digit 1"
      },
      {
        "submissionValue": "HAND DIGIT 2 ARTERY",
        "conceptId": "C177996",
        "decode": "Hand Digit 2 Artery"
      },
      {
        "submissionValue": "HAND DIGIT 2",
        "conceptId": "C52835",
        "decode": "Hand Digit 2"
      },
      {
        "submissionValue": "HAND DIGIT 3 ARTERY",
        "conceptId": "C177998",
        "decode": "Hand Digit 3 Artery"
      },
      {
        "submissionValue": "HAND DIGIT 3",
        "conceptId": "C52836",
        "decode": "Hand Digit 3"
      },
      {
        "submissionValue": "HAND DIGIT 4 ARTERY",
        "conceptId": "C177999",
        "decode": "Hand Digit 4 Artery"
      },
      {
        "submissionValue": "HAND DIGIT 4",
        "conceptId": "C52837",
        "decode": "Hand Digit 4"
      },
      {
        "submissionValue": "HAND DIGIT 5 ARTERY",
        "conceptId": "C177997",
        "decode": "Hand Digit 5 Artery"
      },
      {
        "submissionValue": "HAND DIGIT 5",
        "conceptId": "C52838",
        "decode": "Hand Digit 5"
      },
      {
        "submissionValue": "HAND PHALANX",
        "conceptId": "C52771",
        "decode": "Hand Phalanx"
      },
      {
        "submissionValue": "HAND",
        "conceptId": "C32712",
        "decode": "Hand"
      },
      {
        "submissionValue": "HARD PALATE",
        "conceptId": "C12230",
        "decode": "Hard Palate"
      },
      {
        "submissionValue": "HEAD AND NECK",
        "conceptId": "C12418",
        "decode": "Head and Neck"
      },
      {
        "submissionValue": "HEAD OF THE FIBULA",
        "conceptId": "C32719",
        "decode": "Head of the Fibula"
      },
      {
        "submissionValue": "HEAD OF THE HUMERUS",
        "conceptId": "C32720",
        "decode": "Head of the Humerus"
      },
      {
        "submissionValue": "HEAD SOFT TISSUE",
        "conceptId": "C225634",
        "decode": "Head Soft Tissue"
      },
      {
        "submissionValue": "HEAD",
        "conceptId": "C12419",
        "decode": "Head"
      },
      {
        "submissionValue": "HEART",
        "conceptId": "C12727",
        "decode": "Heart"
      },
      {
        "submissionValue": "HEART, APEX",
        "conceptId": "C32126",
        "decode": "Apex of the Heart"
      },
      {
        "submissionValue": "HEART, ATRIUM",
        "conceptId": "C12728",
        "decode": "Cardiac Atrium"
      },
      {
        "submissionValue": "HEART, BASE",
        "conceptId": "C48589",
        "decode": "Base of the Heart"
      },
      {
        "submissionValue": "HEART, FORAMEN OVALE",
        "conceptId": "C34241",
        "decode": "Foramen Ovale of the Fetal Heart"
      },
      {
        "submissionValue": "HEART, LEFT ATRIAL APPENDAGE",
        "conceptId": "C127643",
        "decode": "Left Atrial Appendage"
      },
      {
        "submissionValue": "HEART, LEFT ATRIUM",
        "conceptId": "C12869",
        "decode": "Left Atrium"
      },
      {
        "submissionValue": "HEART, LEFT VENTRICLE",
        "conceptId": "C12871",
        "decode": "Left Ventricle"
      },
      {
        "submissionValue": "HEART, LEFT VENTRICLE, APEX SHORT AXIS",
        "conceptId": "C221579",
        "decode": "Left Ventricle Apex Short Axis"
      },
      {
        "submissionValue": "HEART, LEFT VENTRICLE, BASE SHORT AXIS",
        "conceptId": "C221577",
        "decode": "Left Ventricle Base Short Axis"
      },
      {
        "submissionValue": "HEART, LEFT VENTRICLE, MID-LEVEL SHORT AXIS",
        "conceptId": "C221578",
        "decode": "Left Ventricle Mid-level Short Axis"
      },
      {
        "submissionValue": "HEART, LEFT VENTRICULAR OUTFLOW TRACT",
        "conceptId": "C127644",
        "decode": "Left Ventricular Outflow Tract"
      },
      {
        "submissionValue": "HEART, LEFT VENTRICULAR WALL",
        "conceptId": "C127645",
        "decode": "Left Ventricular Wall"
      },
      {
        "submissionValue": "HEART, RIGHT ATRIAL APPENDAGE",
        "conceptId": "C127646",
        "decode": "Right Atrial Appendage"
      },
      {
        "submissionValue": "HEART, RIGHT ATRIUM",
        "conceptId": "C12868",
        "decode": "Right Atrium"
      },
      {
        "submissionValue": "HEART, RIGHT VENTRICLE",
        "conceptId": "C12870",
        "decode": "Right Ventricle"
      },
      {
        "submissionValue": "HEART, RIGHT VENTRICLE, BASE",
        "conceptId": "C201433",
        "decode": "Base of the Right Ventricle"
      },
      {
        "submissionValue": "HEART, RIGHT VENTRICLE, MID-LEVEL",
        "conceptId": "C201434",
        "decode": "Mid Level Right Ventricle"
      },
      {
        "submissionValue": "HEART, RIGHT VENTRICULAR FREE WALL",
        "conceptId": "C127647",
        "decode": "Right Ventricular Free Wall"
      },
      {
        "submissionValue": "HEART, RIGHT VENTRICULAR OUTFLOW TRACT",
        "conceptId": "C127648",
        "decode": "Right Ventricular Outflow Tract"
      },
      {
        "submissionValue": "HEART, RIGHT VENTRICULAR WALL",
        "conceptId": "C127649",
        "decode": "Right Ventricular Wall"
      },
      {
        "submissionValue": "HEART, SEPTUM",
        "conceptId": "C49485",
        "decode": "Heart Septum"
      },
      {
        "submissionValue": "HEART, VENTRICLE",
        "conceptId": "C12730",
        "decode": "Cardiac Ventricle"
      },
      {
        "submissionValue": "HEART, VENTRICULAR CHAMBER",
        "conceptId": "C186120",
        "decode": "Heart, Ventricular Chamber"
      },
      {
        "submissionValue": "HEART, VENTRICULAR WALL",
        "conceptId": "C119295",
        "decode": "Ventricular Wall of the Heart"
      },
      {
        "submissionValue": "HEEL OF THE FOOT",
        "conceptId": "C161381",
        "decode": "Heel of the Foot"
      },
      {
        "submissionValue": "HEEL OF THE HAND",
        "conceptId": "C161382",
        "decode": "Heel of the Hand"
      },
      {
        "submissionValue": "HEPATIC ARTERY",
        "conceptId": "C32729",
        "decode": "Common Hepatic Artery"
      },
      {
        "submissionValue": "HEPATIC LYMPH NODE",
        "conceptId": "C77640",
        "decode": "Hepatic Lymph Node"
      },
      {
        "submissionValue": "HEPATIC VEIN",
        "conceptId": "C32736",
        "decode": "Hepatic Vein"
      },
      {
        "submissionValue": "HEPATOBILIARY SYSTEM",
        "conceptId": "C43612",
        "decode": "Hepatobiliary System"
      },
      {
        "submissionValue": "HILAR LYMPH NODE",
        "conceptId": "C98187",
        "decode": "Pulmonary Hilar Lymph Node"
      },
      {
        "submissionValue": "HILAR",
        "conceptId": "C25724",
        "decode": "Hilar"
      },
      {
        "submissionValue": "HINDLIMB",
        "conceptId": "C77625",
        "decode": "Hind Limb"
      },
      {
        "submissionValue": "HINDPAW PHALANX",
        "conceptId": "C186121",
        "decode": "Hindpaw Phalanx"
      },
      {
        "submissionValue": "HIP ABDUCTOR MUSCLES",
        "conceptId": "C204656",
        "decode": "Hip Abductor Muscles"
      },
      {
        "submissionValue": "HIP ADDUCTOR MUSCLES",
        "conceptId": "C204657",
        "decode": "Hip Adductor Muscles"
      },
      {
        "submissionValue": "HIP ADDUCTORS",
        "conceptId": "C53039",
        "decode": "Adductor Group of the Leg"
      },
      {
        "submissionValue": "HIP EXTENSOR MUSCLES",
        "conceptId": "C204660",
        "decode": "Hip Extensor Muscles"
      },
      {
        "submissionValue": "HIP FLEXOR MUSCLES",
        "conceptId": "C186122",
        "decode": "Hip Flexor Muscles"
      },
      {
        "submissionValue": "HIP JOINT",
        "conceptId": "C32742",
        "decode": "Hip Joint"
      },
      {
        "submissionValue": "HIP",
        "conceptId": "C64193",
        "decode": "Hip"
      },
      {
        "submissionValue": "HIPPOCAMPUS",
        "conceptId": "C12444",
        "decode": "Hippocampus"
      },
      {
        "submissionValue": "HUMERAL EPICONDYLE",
        "conceptId": "C114187",
        "decode": "Humeral Epicondyle"
      },
      {
        "submissionValue": "HUMERUS SHAFT",
        "conceptId": "C120671",
        "decode": "Humeral Shaft"
      },
      {
        "submissionValue": "HUMERUS",
        "conceptId": "C12731",
        "decode": "Humerus"
      },
      {
        "submissionValue": "HYMENAL RING",
        "conceptId": "C165999",
        "decode": "Hymenal Ring"
      },
      {
        "submissionValue": "HYOID BONE",
        "conceptId": "C32752",
        "decode": "Hyoid Bone"
      },
      {
        "submissionValue": "HYPOGLOSSAL NERVE",
        "conceptId": "C12732",
        "decode": "Hypoglossal Nerve"
      },
      {
        "submissionValue": "HYPOPHARYNX",
        "conceptId": "C12246",
        "decode": "Hypopharynx"
      },
      {
        "submissionValue": "HYPOTHALAMUS",
        "conceptId": "C12458",
        "decode": "Hypothalamus"
      },
      {
        "submissionValue": "ILEOCECAL JUNCTION",
        "conceptId": "C178001",
        "decode": "Ileocecal Junction"
      },
      {
        "submissionValue": "ILEOCOLIC LYMPH NODE",
        "conceptId": "C225635",
        "decode": "Ileocolic Lymph Node"
      },
      {
        "submissionValue": "ILEUM LYMPH NODE",
        "conceptId": "C176318",
        "decode": "Ileum Lymph Node"
      },
      {
        "submissionValue": "ILEUM WALL",
        "conceptId": "C176316",
        "decode": "Ileum Wall"
      },
      {
        "submissionValue": "ILEUM",
        "conceptId": "C12387",
        "decode": "Ileum"
      },
      {
        "submissionValue": "ILEUM, TERMINAL",
        "conceptId": "C33757",
        "decode": "Terminal Ileum"
      },
      {
        "submissionValue": "ILIAC CREST",
        "conceptId": "C103818",
        "decode": "Iliac Crest"
      },
      {
        "submissionValue": "ILIAC FOSSA",
        "conceptId": "C103454",
        "decode": "Iliac Fossa"
      },
      {
        "submissionValue": "ILIAC LYMPH NODE",
        "conceptId": "C32761",
        "decode": "Iliac Lymph Node"
      },
      {
        "submissionValue": "ILIAC VEIN",
        "conceptId": "C12734",
        "decode": "Iliac Vein"
      },
      {
        "submissionValue": "ILIOPSOAS MUSCLE",
        "conceptId": "C32764",
        "decode": "Iliopsoas Muscle"
      },
      {
        "submissionValue": "ILIOTIBIAL BAND",
        "conceptId": "C139207",
        "decode": "Iliotibial Band"
      },
      {
        "submissionValue": "ILIUM",
        "conceptId": "C32765",
        "decode": "Ilium"
      },
      {
        "submissionValue": "INCISOR",
        "conceptId": "C32769",
        "decode": "Incisor"
      },
      {
        "submissionValue": "INCUS",
        "conceptId": "C32770",
        "decode": "Incus"
      },
      {
        "submissionValue": "INFERIOR MEDIASTINAL LYMPH NODE",
        "conceptId": "C113695",
        "decode": "Inferior Mediastinal Lymph Node"
      },
      {
        "submissionValue": "INFERIOR PUBIC RAMUS",
        "conceptId": "C132392",
        "decode": "Inferior Pubic Ramus"
      },
      {
        "submissionValue": "INFERIOR TEMPORAL GYRUS",
        "conceptId": "C32791",
        "decode": "Inferior Temporal Gyrus"
      },
      {
        "submissionValue": "INFERIOR VENA CAVA",
        "conceptId": "C12815",
        "decode": "Inferior Vena Cava"
      },
      {
        "submissionValue": "INFRACLAVICULAR LYMPH NODE",
        "conceptId": "C63705",
        "decode": "Infraclavicular Lymph Node"
      },
      {
        "submissionValue": "INFRARENAL AORTA",
        "conceptId": "C116179",
        "decode": "Infrarenal Aortic Segment"
      },
      {
        "submissionValue": "INFRASPINATUS MUSCLE",
        "conceptId": "C32797",
        "decode": "Infraspinatus"
      },
      {
        "submissionValue": "INFRASPINATUS TENDON",
        "conceptId": "C209625",
        "decode": "Infraspinatus Tendon"
      },
      {
        "submissionValue": "INFRATENTORIAL BRAIN",
        "conceptId": "C12509",
        "decode": "Infratentorial Brain"
      },
      {
        "submissionValue": "INGUINAL LYMPH NODE",
        "conceptId": "C32801",
        "decode": "Inguinal Lymph Node"
      },
      {
        "submissionValue": "INGUINAL REGION",
        "conceptId": "C12726",
        "decode": "Inguinal Region"
      },
      {
        "submissionValue": "INSULAR CORTEX",
        "conceptId": "C32278",
        "decode": "Central Lobe"
      },
      {
        "submissionValue": "INTERATRIAL SEPTUM",
        "conceptId": "C32818",
        "decode": "Interatrial Septum"
      },
      {
        "submissionValue": "INTERNAL ILIAC ARTERY",
        "conceptId": "C32845",
        "decode": "Internal Iliac Artery"
      },
      {
        "submissionValue": "INTERNAL ILIAC LYMPH NODE",
        "conceptId": "C88142",
        "decode": "Internal Iliac Lymph Node"
      },
      {
        "submissionValue": "INTERNAL MAMMARY ARTERY",
        "conceptId": "C52941",
        "decode": "Internal Mammary Artery"
      },
      {
        "submissionValue": "INTERNAL MAMMARY LYMPH NODE",
        "conceptId": "C32853",
        "decode": "Internal Mammary Lymph Node"
      },
      {
        "submissionValue": "INTERPARIETAL BONE",
        "conceptId": "C186123",
        "decode": "Interparietal Bone"
      },
      {
        "submissionValue": "INTERPHALANGEAL JOINT 1 OF THE FOOT",
        "conceptId": "C114200",
        "decode": "Interphalangeal Joint 1 of the Foot"
      },
      {
        "submissionValue": "INTERPHALANGEAL JOINT 1",
        "conceptId": "C102301",
        "decode": "Interphalangeal Joint 1"
      },
      {
        "submissionValue": "INTERPHALANGEAL JOINT 2 OF THE FOOT",
        "conceptId": "C114201",
        "decode": "Interphalangeal Joint 2 of the Foot"
      },
      {
        "submissionValue": "INTERPHALANGEAL JOINT 2 OF THE HAND",
        "conceptId": "C114190",
        "decode": "Interphalangeal Joint 2 of the Hand"
      },
      {
        "submissionValue": "INTERPHALANGEAL JOINT 2",
        "conceptId": "C102302",
        "decode": "Interphalangeal Joint 2"
      },
      {
        "submissionValue": "INTERPHALANGEAL JOINT 3 OF THE FOOT",
        "conceptId": "C114202",
        "decode": "Interphalangeal Joint 3 of the Foot"
      },
      {
        "submissionValue": "INTERPHALANGEAL JOINT 3 OF THE HAND",
        "conceptId": "C114191",
        "decode": "Interphalangeal Joint 3 of the Hand"
      },
      {
        "submissionValue": "INTERPHALANGEAL JOINT 3",
        "conceptId": "C102303",
        "decode": "Interphalangeal Joint 3"
      },
      {
        "submissionValue": "INTERPHALANGEAL JOINT 4 OF THE FOOT",
        "conceptId": "C114203",
        "decode": "Interphalangeal Joint 4 of the Foot"
      },
      {
        "submissionValue": "INTERPHALANGEAL JOINT 4 OF THE HAND",
        "conceptId": "C114192",
        "decode": "Interphalangeal Joint 4 of the Hand"
      },
      {
        "submissionValue": "INTERPHALANGEAL JOINT 4",
        "conceptId": "C102304",
        "decode": "Interphalangeal Joint 4"
      },
      {
        "submissionValue": "INTERPHALANGEAL JOINT 5 OF THE FOOT",
        "conceptId": "C114204",
        "decode": "Interphalangeal Joint 5 of the Foot"
      },
      {
        "submissionValue": "INTERPHALANGEAL JOINT 5 OF THE HAND",
        "conceptId": "C114193",
        "decode": "Interphalangeal Joint 5 of the Hand"
      },
      {
        "submissionValue": "INTERPHALANGEAL JOINT 5",
        "conceptId": "C102305",
        "decode": "Interphalangeal Joint 5"
      },
      {
        "submissionValue": "INTERPHALANGEAL JOINT OF THE HAND",
        "conceptId": "C32868",
        "decode": "Interphalangeal Joint of the Hand"
      },
      {
        "submissionValue": "INTERPHALANGEAL OF THE FOOT",
        "conceptId": "C32867",
        "decode": "Interphalangeal Joint of the Foot"
      },
      {
        "submissionValue": "INTERPHALANGEAL THUMB JOINT",
        "conceptId": "C102306",
        "decode": "Interphalangeal Thumb Joint"
      },
      {
        "submissionValue": "INTERTROCHANTERIC REGION",
        "conceptId": "C120672",
        "decode": "Intertrochanteric Region"
      },
      {
        "submissionValue": "INTERVENTRICULAR SEPTUM",
        "conceptId": "C32874",
        "decode": "Interventricular Septum"
      },
      {
        "submissionValue": "INTESTINAL WALL",
        "conceptId": "C49478",
        "decode": "Intestinal Wall Tissue"
      },
      {
        "submissionValue": "INTESTINE",
        "conceptId": "C12736",
        "decode": "Intestine"
      },
      {
        "submissionValue": "INTRACRANIAL ARTERY",
        "conceptId": "C12980",
        "decode": "Intracranial Artery"
      },
      {
        "submissionValue": "INTRAHEPATIC BILE DUCT",
        "conceptId": "C12677",
        "decode": "Intrahepatic Bile Duct"
      },
      {
        "submissionValue": "INTRAHEPATIC LARGE BILE DUCT",
        "conceptId": "C96803",
        "decode": "Intrahepatic Large Bile Duct"
      },
      {
        "submissionValue": "INTRARETINAL SPACE",
        "conceptId": "C214699",
        "decode": "Intraretinal Space"
      },
      {
        "submissionValue": "INTRATHORACIC LYMPH NODE",
        "conceptId": "C12359",
        "decode": "Intrathoracic Lymph Node"
      },
      {
        "submissionValue": "IRIS",
        "conceptId": "C12737",
        "decode": "Iris"
      },
      {
        "submissionValue": "ISCHIAL TUBEROSITY",
        "conceptId": "C105446",
        "decode": "Ischial Tuberosity"
      },
      {
        "submissionValue": "ISCHIORECTAL FOSSA",
        "conceptId": "C103455",
        "decode": "Ischiorectal Fossa"
      },
      {
        "submissionValue": "ISCHIUM",
        "conceptId": "C32884",
        "decode": "Ischium"
      },
      {
        "submissionValue": "JAW",
        "conceptId": "C48821",
        "decode": "Jaw Bone"
      },
      {
        "submissionValue": "JEJUNUM",
        "conceptId": "C12388",
        "decode": "Jejunum"
      },
      {
        "submissionValue": "JOINT",
        "conceptId": "C13044",
        "decode": "Joint"
      },
      {
        "submissionValue": "JUGULAR VEIN",
        "conceptId": "C12738",
        "decode": "Jugular Vein"
      },
      {
        "submissionValue": "KIDNEY INTERPOLAR REGION",
        "conceptId": "C186124",
        "decode": "Kidney Interpolar Region"
      },
      {
        "submissionValue": "KIDNEY",
        "conceptId": "C12415",
        "decode": "Kidney"
      },
      {
        "submissionValue": "KIDNEY, CORTEX",
        "conceptId": "C12739",
        "decode": "Renal Cortex"
      },
      {
        "submissionValue": "KIDNEY, HILUM",
        "conceptId": "C32740",
        "decode": "Hilar Area of the Kidney"
      },
      {
        "submissionValue": "KIDNEY, LOWER POLE",
        "conceptId": "C93180",
        "decode": "Lower Pole of Kidney"
      },
      {
        "submissionValue": "KIDNEY, MEDULLA",
        "conceptId": "C12740",
        "decode": "Renal Medulla"
      },
      {
        "submissionValue": "KIDNEY, UPPER POLE",
        "conceptId": "C93179",
        "decode": "Upper Pole of Kidney"
      },
      {
        "submissionValue": "KNEE EXTENSOR MUSCLES",
        "conceptId": "C204655",
        "decode": "Knee Extensor Muscles"
      },
      {
        "submissionValue": "KNEE FLEXOR MUSCLES",
        "conceptId": "C186125",
        "decode": "Knee Flexor Muscles"
      },
      {
        "submissionValue": "KNEE JOINT TENDONS",
        "conceptId": "C161388",
        "decode": "Knee Joint Tendons"
      },
      {
        "submissionValue": "KNEE JOINT",
        "conceptId": "C32898",
        "decode": "Knee Joint"
      },
      {
        "submissionValue": "L1 DERMATOME",
        "conceptId": "C225636",
        "decode": "L1 Dermatome"
      },
      {
        "submissionValue": "L1 VERTEBRA",
        "conceptId": "C32899",
        "decode": "L1 Vertebra"
      },
      {
        "submissionValue": "L2 DERMATOME",
        "conceptId": "C225637",
        "decode": "L2 Dermatome"
      },
      {
        "submissionValue": "L2 VERTEBRA",
        "conceptId": "C32900",
        "decode": "L2 Vertebra"
      },
      {
        "submissionValue": "L2-L3 INTERVERTEBRAL SPACE",
        "conceptId": "C112327",
        "decode": "L2-L3 Intervertebral Space"
      },
      {
        "submissionValue": "L3 DERMATOME",
        "conceptId": "C225638",
        "decode": "L3 Dermatome"
      },
      {
        "submissionValue": "L3 VERTEBRA",
        "conceptId": "C32901",
        "decode": "L3 Vertebra"
      },
      {
        "submissionValue": "L3-L4 INTERVERTEBRAL SPACE",
        "conceptId": "C112328",
        "decode": "L3-L4 Intervertebral Space"
      },
      {
        "submissionValue": "L4 DERMATOME",
        "conceptId": "C225639",
        "decode": "L4 Dermatome"
      },
      {
        "submissionValue": "L4 VERTEBRA",
        "conceptId": "C32902",
        "decode": "L4 Vertebra"
      },
      {
        "submissionValue": "L4-L5 INTERVERTEBRAL SPACE",
        "conceptId": "C142296",
        "decode": "L4-L5 Intervertebral Space"
      },
      {
        "submissionValue": "L5 DERMATOME",
        "conceptId": "C225640",
        "decode": "L5 Dermatome"
      },
      {
        "submissionValue": "L5 VERTEBRA",
        "conceptId": "C32903",
        "decode": "L5 Vertebra"
      },
      {
        "submissionValue": "L5-S1 INTERVERTEBRAL SPACE",
        "conceptId": "C154781",
        "decode": "L5-S1 Intervertebral Space"
      },
      {
        "submissionValue": "L6 VERTEBRA",
        "conceptId": "C120673",
        "decode": "Extra Lumbar Vertebra"
      },
      {
        "submissionValue": "LACRIMAL BONE",
        "conceptId": "C32906",
        "decode": "Lacrimal Bone"
      },
      {
        "submissionValue": "LACRIMAL CANALICULUS",
        "conceptId": "C32907",
        "decode": "Lacrimal Canaliculus"
      },
      {
        "submissionValue": "LACRIMAL GLAND",
        "conceptId": "C12346",
        "decode": "Lacrimal Gland"
      },
      {
        "submissionValue": "LAD SEPTAL PERFORATOR ARTERY",
        "conceptId": "C102313",
        "decode": "Left Anterior Descending Septal Perforator Artery"
      },
      {
        "submissionValue": "LARGE INTESTINE",
        "conceptId": "C12379",
        "decode": "Large Intestine"
      },
      {
        "submissionValue": "LARYNX",
        "conceptId": "C12420",
        "decode": "Larynx"
      },
      {
        "submissionValue": "LATERAL FIRST DIAGONAL BRANCH ARTERY",
        "conceptId": "C102307",
        "decode": "Lateral First Diagonal Branch Artery"
      },
      {
        "submissionValue": "LATERAL FIRST OBTUSE MARGINAL BRANCH ARTERY",
        "conceptId": "C102308",
        "decode": "Lateral First Obtuse Marginal Branch Artery"
      },
      {
        "submissionValue": "LATERAL HUMERAL EPICONDYLE",
        "conceptId": "C139202",
        "decode": "Lateral Humeral Epicondyle"
      },
      {
        "submissionValue": "LATERAL RAMUS INTERMEDIUS ARTERY",
        "conceptId": "C102309",
        "decode": "Lateral Ramus Intermedius Artery"
      },
      {
        "submissionValue": "LATERAL SECOND DIAGONAL BRANCH ARTERY",
        "conceptId": "C102310",
        "decode": "Lateral Second Diagonal Branch Artery"
      },
      {
        "submissionValue": "LATERAL SECOND OBTUSE MARGINAL BRANCH ARTERY",
        "conceptId": "C102311",
        "decode": "Lateral Second Obtuse Marginal Branch Artery"
      },
      {
        "submissionValue": "LATERAL THIRD DIAGONAL BRANCH ARTERY",
        "conceptId": "C102312",
        "decode": "Lateral Third Diagonal Branch Artery"
      },
      {
        "submissionValue": "LATERAL THIRD OBTUSE MARGINAL BRANCH ARTERY",
        "conceptId": "C102425",
        "decode": "Lateral Third Obtuse Marginal Branch Artery"
      },
      {
        "submissionValue": "LATISSIMUS DORSI MUSCLE",
        "conceptId": "C33150",
        "decode": "Musculus Latissimus Dorsi"
      },
      {
        "submissionValue": "LEFT ANTERIOR DESCENDING ARTERY OSTIUM",
        "conceptId": "C116175",
        "decode": "Left Anterior Descending Artery Ostium"
      },
      {
        "submissionValue": "LEFT ATRIAL ENDOCARDIUM",
        "conceptId": "C221580",
        "decode": "Left Atrial Endocardium"
      },
      {
        "submissionValue": "LEFT ATRIOVENTRICULAR ARTERY",
        "conceptId": "C116177",
        "decode": "Left Atrioventricular Artery"
      },
      {
        "submissionValue": "LEFT CIRCUMFLEX ARTERY OSTIUM",
        "conceptId": "C116176",
        "decode": "Left Circumflex Artery Ostium"
      },
      {
        "submissionValue": "LEFT CIRCUMFLEX CORONARY ARTERY",
        "conceptId": "C12874",
        "decode": "Circumflex Branch of the Left Coronary Artery"
      },
      {
        "submissionValue": "LEFT MAIN CORONARY ARTERY BIFURCATION",
        "conceptId": "C116174",
        "decode": "Left Main Coronary Artery Bifurcation"
      },
      {
        "submissionValue": "LEFT MAIN CORONARY ARTERY BODY",
        "conceptId": "C116173",
        "decode": "Left Main Coronary Artery Body"
      },
      {
        "submissionValue": "LEFT MAIN CORONARY ARTERY OSTIUM",
        "conceptId": "C116172",
        "decode": "Left Main Coronary Artery Ostium"
      },
      {
        "submissionValue": "LEFT POSTERIOR DESCENDING ARTERY",
        "conceptId": "C116178",
        "decode": "Left Posterior Descending Artery"
      },
      {
        "submissionValue": "LEFT POSTEROLATERAL DESCENDING ARTERY",
        "conceptId": "C102314",
        "decode": "Left Posterolateral Descending Artery"
      },
      {
        "submissionValue": "LEFT VENTRICULAR APEX SEGMENT",
        "conceptId": "C127650",
        "decode": "Left Ventricular Apex Segment"
      },
      {
        "submissionValue": "LEFT VENTRICULAR APICAL ANTERIOR SEGMENT",
        "conceptId": "C127651",
        "decode": "Left Ventricular Apical Anterior Segment"
      },
      {
        "submissionValue": "LEFT VENTRICULAR APICAL INFERIOR SEGMENT",
        "conceptId": "C127652",
        "decode": "Left Ventricular Apical Inferior Segment"
      },
      {
        "submissionValue": "LEFT VENTRICULAR APICAL LATERAL SEGMENT",
        "conceptId": "C127653",
        "decode": "Left Ventricular Apical Lateral Segment"
      },
      {
        "submissionValue": "LEFT VENTRICULAR APICAL SEPTAL SEGMENT",
        "conceptId": "C127654",
        "decode": "Left Ventricular Apical Septal Segment"
      },
      {
        "submissionValue": "LEFT VENTRICULAR BASAL ANTERIOR SEGMENT",
        "conceptId": "C127655",
        "decode": "Left Ventricular Basal Anterior Segment"
      },
      {
        "submissionValue": "LEFT VENTRICULAR BASAL ANTEROLATERAL SEGMENT",
        "conceptId": "C127656",
        "decode": "Left Ventricular Basal Anterolateral Segment"
      },
      {
        "submissionValue": "LEFT VENTRICULAR BASAL ANTEROSEPTAL SEGMENT",
        "conceptId": "C127657",
        "decode": "Left Ventricular Basal Anteroseptal Segment"
      },
      {
        "submissionValue": "LEFT VENTRICULAR BASAL INFERIOR SEGMENT",
        "conceptId": "C127658",
        "decode": "Left Ventricular Basal Inferior Segment"
      },
      {
        "submissionValue": "LEFT VENTRICULAR BASAL INFEROLATERAL SEGMENT",
        "conceptId": "C127659",
        "decode": "Left Ventricular Basal Inferolateral Segment"
      },
      {
        "submissionValue": "LEFT VENTRICULAR BASAL INFEROSEPTAL SEGMENT",
        "conceptId": "C127660",
        "decode": "Left Ventricular Basal Inferoseptal Segment"
      },
      {
        "submissionValue": "LEFT VENTRICULAR ENDOCARDIUM",
        "conceptId": "C221581",
        "decode": "Left Ventricular Endocardium"
      },
      {
        "submissionValue": "LEFT VENTRICULAR EPICARDIUM",
        "conceptId": "C102315",
        "decode": "Left Ventricular Epicardium"
      },
      {
        "submissionValue": "LEFT VENTRICULAR MID ANTERIOR SEGMENT",
        "conceptId": "C127661",
        "decode": "Left Ventricular Mid Anterior Segment"
      },
      {
        "submissionValue": "LEFT VENTRICULAR MID ANTEROLATERAL SEGMENT",
        "conceptId": "C127662",
        "decode": "Left Ventricular Mid Anterolateral Segment"
      },
      {
        "submissionValue": "LEFT VENTRICULAR MID ANTEROSEPTAL SEGMENT",
        "conceptId": "C127663",
        "decode": "Left Ventricular Mid Anteroseptal Segment"
      },
      {
        "submissionValue": "LEFT VENTRICULAR MID INFERIOR SEGMENT",
        "conceptId": "C127664",
        "decode": "Left Ventricular Mid Inferior Segment"
      },
      {
        "submissionValue": "LEFT VENTRICULAR MID INFEROLATERAL SEGMENT",
        "conceptId": "C127665",
        "decode": "Left Ventricular Mid Inferolateral Segment"
      },
      {
        "submissionValue": "LEFT VENTRICULAR MID INFEROSEPTAL SEGMENT",
        "conceptId": "C127666",
        "decode": "Left Ventricular Mid Inferoseptal Segment"
      },
      {
        "submissionValue": "LEG SKIN",
        "conceptId": "C52749",
        "decode": "Leg Skin"
      },
      {
        "submissionValue": "LEG",
        "conceptId": "C32974",
        "decode": "Leg"
      },
      {
        "submissionValue": "LENS",
        "conceptId": "C12743",
        "decode": "Lens"
      },
      {
        "submissionValue": "LEPTOMENINGES",
        "conceptId": "C32979",
        "decode": "Leptomeninges"
      },
      {
        "submissionValue": "LESSER CURVATURE OF THE STOMACH",
        "conceptId": "C12261",
        "decode": "Lesser Curvature of the Stomach"
      },
      {
        "submissionValue": "LESSER TROCHANTER",
        "conceptId": "C32982",
        "decode": "Lesser Trochanter"
      },
      {
        "submissionValue": "LIGAMENT",
        "conceptId": "C13046",
        "decode": "Ligament"
      },
      {
        "submissionValue": "LIMB",
        "conceptId": "C12429",
        "decode": "Limb"
      },
      {
        "submissionValue": "LIMB, LOWER",
        "conceptId": "C12742",
        "decode": "Lower Extremity"
      },
      {
        "submissionValue": "LIMB, UPPER",
        "conceptId": "C12671",
        "decode": "Upper Extremity"
      },
      {
        "submissionValue": "LINGULA OF THE LUNG",
        "conceptId": "C40373",
        "decode": "Lingula of the Lung"
      },
      {
        "submissionValue": "LIP",
        "conceptId": "C12220",
        "decode": "Lip"
      },
      {
        "submissionValue": "LIP, LOWER",
        "conceptId": "C12222",
        "decode": "External Lower Lip"
      },
      {
        "submissionValue": "LIP, UPPER",
        "conceptId": "C12221",
        "decode": "External Upper Lip"
      },
      {
        "submissionValue": "LIVER FISSURE",
        "conceptId": "C32996",
        "decode": "Liver Fissure"
      },
      {
        "submissionValue": "LIVER LOBE",
        "conceptId": "C49579",
        "decode": "Liver Lobe"
      },
      {
        "submissionValue": "LIVER",
        "conceptId": "C12392",
        "decode": "Liver"
      },
      {
        "submissionValue": "LIVER, CAUDATE LOBE",
        "conceptId": "C33000",
        "decode": "Caudate Lobe"
      },
      {
        "submissionValue": "LIVER, LEFT LOBE ANTEROLATERAL SEGMENT",
        "conceptId": "C79733",
        "decode": "Left Anterolateral Segment"
      },
      {
        "submissionValue": "LIVER, LEFT LOBE INFEROMEDIAL SEGMENT",
        "conceptId": "C79735",
        "decode": "Left Inferomedial Segment"
      },
      {
        "submissionValue": "LIVER, LEFT LOBE MEDIAL SEGMENT",
        "conceptId": "C198297",
        "decode": "Left Medial Segment of Liver"
      },
      {
        "submissionValue": "LIVER, LEFT LOBE POSTEROLATERAL SEGMENT",
        "conceptId": "C79732",
        "decode": "Left Posterolateral Segment"
      },
      {
        "submissionValue": "LIVER, LEFT LOBE SUPEROMEDIAL SEGMENT",
        "conceptId": "C79734",
        "decode": "Left Superomedial Segment"
      },
      {
        "submissionValue": "LIVER, LEFT LOBE",
        "conceptId": "C32965",
        "decode": "Left Lobe of the Liver"
      },
      {
        "submissionValue": "LIVER, QUADRATE LOBE",
        "conceptId": "C112404",
        "decode": "Quadrate Lobe of Liver"
      },
      {
        "submissionValue": "LIVER, RIGHT LOBE ANTEROINFERIOR SEGMENT",
        "conceptId": "C79736",
        "decode": "Right Anteroinferior Segment"
      },
      {
        "submissionValue": "LIVER, RIGHT LOBE ANTEROSUPERIOR SEGMENT",
        "conceptId": "C79739",
        "decode": "Right Anterosuperior Segment"
      },
      {
        "submissionValue": "LIVER, RIGHT LOBE POSTEROINFERIOR SEGMENT",
        "conceptId": "C79737",
        "decode": "Right Posteroinferior Segment"
      },
      {
        "submissionValue": "LIVER, RIGHT LOBE POSTEROSUPERIOR SEGMENT",
        "conceptId": "C79738",
        "decode": "Right Posterosuperior Segment"
      },
      {
        "submissionValue": "LIVER, RIGHT LOBE",
        "conceptId": "C33481",
        "decode": "Right Lobe of the Liver"
      },
      {
        "submissionValue": "LOCUS CERULEUS",
        "conceptId": "C97333",
        "decode": "Locus Coeruleus"
      },
      {
        "submissionValue": "LOWER GASTROINTESTINAL TRACT LYMPH NODE",
        "conceptId": "C176234",
        "decode": "Lower Gastrointestinal Tract Lymph Node"
      },
      {
        "submissionValue": "LOWER JUGULAR LYMPH NODE",
        "conceptId": "C132512",
        "decode": "Lower Jugular Lymph Node Group (Level IV)"
      },
      {
        "submissionValue": "LOWER LIMB SOFT TISSUE",
        "conceptId": "C225641",
        "decode": "Lower Limb Soft Tissue"
      },
      {
        "submissionValue": "LOWER RESPIRATORY SYSTEM",
        "conceptId": "C33012",
        "decode": "Lower Respiratory System"
      },
      {
        "submissionValue": "LUMBAR REGION",
        "conceptId": "C34004",
        "decode": "Lumbar Region"
      },
      {
        "submissionValue": "LUMBAR SPINE",
        "conceptId": "C69314",
        "decode": "Lumbar Spine"
      },
      {
        "submissionValue": "LUMBAR VERTEBRA",
        "conceptId": "C12744",
        "decode": "Lumbar Vertebra"
      },
      {
        "submissionValue": "LUMBOSACRAL SPINE",
        "conceptId": "C48824",
        "decode": "Lumbosacral Region"
      },
      {
        "submissionValue": "LUMBRICAL MUSCLES OF THE FOOT",
        "conceptId": "C186126",
        "decode": "Lumbrical Muscles of the Foot"
      },
      {
        "submissionValue": "LUMBRICAL MUSCLES OF THE HAND",
        "conceptId": "C150852",
        "decode": "Lumbrical Muscle"
      },
      {
        "submissionValue": "LUNATE BONE",
        "conceptId": "C12786",
        "decode": "Lunate Bone"
      },
      {
        "submissionValue": "LUNG LOBE",
        "conceptId": "C34021",
        "decode": "Lung Lobe"
      },
      {
        "submissionValue": "LUNG",
        "conceptId": "C12468",
        "decode": "Lung"
      },
      {
        "submissionValue": "LUNG, HILUM",
        "conceptId": "C49282",
        "decode": "Hilar Area of the Lung"
      },
      {
        "submissionValue": "LUNG, LEFT LOWER LOBE",
        "conceptId": "C33020",
        "decode": "Lower Lobe of the Left Lung"
      },
      {
        "submissionValue": "LUNG, LEFT UPPER LOBE",
        "conceptId": "C33021",
        "decode": "Upper Lobe of the Left Lung"
      },
      {
        "submissionValue": "LUNG, LEFT",
        "conceptId": "C32967",
        "decode": "Left Lung"
      },
      {
        "submissionValue": "LUNG, LEFT, INFERIOR LOBE, ANTERIOR BASAL SEGMENT",
        "conceptId": "C132393",
        "decode": "Left Lung, Inferior Lobe, Anterior Basal Segment"
      },
      {
        "submissionValue": "LUNG, LEFT, INFERIOR LOBE, LATERAL BASAL SEGMENT",
        "conceptId": "C132394",
        "decode": "Left Lung, Inferior Lobe, Lateral Basal Segment"
      },
      {
        "submissionValue": "LUNG, LEFT, INFERIOR LOBE, MEDIAL BASAL SEGMENT",
        "conceptId": "C132395",
        "decode": "Left Lung, Inferior Lobe, Medial Basal Segment"
      },
      {
        "submissionValue": "LUNG, LEFT, INFERIOR LOBE, POSTERIOR BASAL SEGMENT",
        "conceptId": "C132396",
        "decode": "Left Lung, Inferior Lobe, Posterior Basal Segment"
      },
      {
        "submissionValue": "LUNG, LEFT, INFERIOR LOBE, SUPERIOR SEGMENT",
        "conceptId": "C132397",
        "decode": "Left Lung, Inferior Lobe, Superior Segment"
      },
      {
        "submissionValue": "LUNG, LEFT, SUPERIOR LOBE, ANTERIOR SEGMENT",
        "conceptId": "C132398",
        "decode": "Left Lung, Superior Lobe, Anterior Segment"
      },
      {
        "submissionValue": "LUNG, LEFT, SUPERIOR LOBE, APICOPOSTERIOR SEGMENT",
        "conceptId": "C132399",
        "decode": "Left Lung, Superior Lobe, Apicoposterior Segment"
      },
      {
        "submissionValue": "LUNG, LEFT, SUPERIOR LOBE, INFERIOR LINGULAR SEGMENT",
        "conceptId": "C132400",
        "decode": "Left Lung, Superior Lobe, Inferior Lingular Segment"
      },
      {
        "submissionValue": "LUNG, LEFT, SUPERIOR LOBE, SUPERIOR LINGULAR SEGMENT",
        "conceptId": "C132401",
        "decode": "Left Lung, Superior Lobe, Superior Lingular Segment"
      },
      {
        "submissionValue": "LUNG, RIGHT LOWER LOBE",
        "conceptId": "C33022",
        "decode": "Lower Lobe of the Right Lung"
      },
      {
        "submissionValue": "LUNG, RIGHT MIDDLE LOBE",
        "conceptId": "C12286",
        "decode": "Middle Lobe of the Right Lung"
      },
      {
        "submissionValue": "LUNG, RIGHT UPPER LOBE",
        "conceptId": "C33023",
        "decode": "Upper Lobe of the Right Lung"
      },
      {
        "submissionValue": "LUNG, RIGHT",
        "conceptId": "C33483",
        "decode": "Right Lung"
      },
      {
        "submissionValue": "LUNG, RIGHT, INFERIOR LOBE, ANTERIOR BASAL SEGMENT",
        "conceptId": "C132402",
        "decode": "Right Lung, Inferior Lobe, Anterior Basal Segment"
      },
      {
        "submissionValue": "LUNG, RIGHT, INFERIOR LOBE, LATERAL BASAL SEGMENT",
        "conceptId": "C132403",
        "decode": "Right Lung, Inferior Lobe, Lateral Basal Segment"
      },
      {
        "submissionValue": "LUNG, RIGHT, INFERIOR LOBE, MEDIAL BASAL SEGMENT",
        "conceptId": "C132404",
        "decode": "Right Lung, Inferior Lobe, Medial Basal Segment"
      },
      {
        "submissionValue": "LUNG, RIGHT, INFERIOR LOBE, POSTERIOR BASAL SEGMENT",
        "conceptId": "C132405",
        "decode": "Right Lung, Inferior Lobe, Posterior Basal Segment"
      },
      {
        "submissionValue": "LUNG, RIGHT, INFERIOR LOBE, SUPERIOR SEGMENT",
        "conceptId": "C132406",
        "decode": "Right Lung, Inferior Lobe, Superior Segment"
      },
      {
        "submissionValue": "LUNG, RIGHT, MIDDLE LOBE, LATERAL SEGMENT",
        "conceptId": "C132407",
        "decode": "Right Lung, Middle Lobe, Lateral Segment"
      },
      {
        "submissionValue": "LUNG, RIGHT, MIDDLE LOBE, MEDIAL SEGMENT",
        "conceptId": "C132408",
        "decode": "Right Lung, Middle Lobe, Medial Segment"
      },
      {
        "submissionValue": "LUNG, RIGHT, SUPERIOR LOBE, ANTERIOR SEGMENT",
        "conceptId": "C132409",
        "decode": "Right Lung, Superior Lobe, Anterior Segment"
      },
      {
        "submissionValue": "LUNG, RIGHT, SUPERIOR LOBE, APICAL SEGMENT",
        "conceptId": "C132410",
        "decode": "Right Lung, Superior Lobe, Apical Segment"
      },
      {
        "submissionValue": "LUNG, RIGHT, SUPERIOR LOBE, POSTERIOR SEGMENT",
        "conceptId": "C132411",
        "decode": "Right Lung, Superior Lobe, Posterior Segment"
      },
      {
        "submissionValue": "LYMPH NODE HILUM",
        "conceptId": "C33031",
        "decode": "Lymph Node Hilum"
      },
      {
        "submissionValue": "LYMPH NODE",
        "conceptId": "C12745",
        "decode": "Lymph Node"
      },
      {
        "submissionValue": "MACULA",
        "conceptId": "C26464",
        "decode": "Macula"
      },
      {
        "submissionValue": "MAIN BRONCHUS, LEFT",
        "conceptId": "C32968",
        "decode": "Left Main Bronchus"
      },
      {
        "submissionValue": "MAIN BRONCHUS, RIGHT",
        "conceptId": "C33486",
        "decode": "Right Main Bronchus"
      },
      {
        "submissionValue": "MALE GENITALIA",
        "conceptId": "C61599",
        "decode": "Male Genitalia"
      },
      {
        "submissionValue": "MALE REPRODUCTIVE SYSTEM",
        "conceptId": "C12722",
        "decode": "Male Reproductive System"
      },
      {
        "submissionValue": "MALLEUS",
        "conceptId": "C33051",
        "decode": "Malleus"
      },
      {
        "submissionValue": "MAMMARY GLAND",
        "conceptId": "C12367",
        "decode": "Mammary Gland"
      },
      {
        "submissionValue": "MANDIBLE",
        "conceptId": "C12290",
        "decode": "Mandible"
      },
      {
        "submissionValue": "MASSETER MUSCLE",
        "conceptId": "C13074",
        "decode": "Masseter Muscle"
      },
      {
        "submissionValue": "MASTOID PROCESS",
        "conceptId": "C12503",
        "decode": "Mastoid Process"
      },
      {
        "submissionValue": "MAXILLA",
        "conceptId": "C26470",
        "decode": "Maxilla"
      },
      {
        "submissionValue": "MAXILLARY SINUS",
        "conceptId": "C12275",
        "decode": "Maxillary Sinus"
      },
      {
        "submissionValue": "MECKELS CAVE",
        "conceptId": "C201432",
        "decode": "Trigeminal Cave"
      },
      {
        "submissionValue": "MEDIAL FEMORAL CONDYLE",
        "conceptId": "C139204",
        "decode": "Medial Femoral Condyle"
      },
      {
        "submissionValue": "MEDIAL NASAL TURBINATE",
        "conceptId": "C139164",
        "decode": "Medial Nasal Turbinate"
      },
      {
        "submissionValue": "MEDIAN BASILIC VEIN",
        "conceptId": "C33070",
        "decode": "Median Basilic Vein"
      },
      {
        "submissionValue": "MEDIAN NERVE",
        "conceptId": "C52815",
        "decode": "Median Nerve"
      },
      {
        "submissionValue": "MEDIAN OR LOWER CERVICAL LYMPH NODE",
        "conceptId": "C103417",
        "decode": "Median Or Lower Cervical Lymph Node"
      },
      {
        "submissionValue": "MEDIASTINAL LYMPH NODE",
        "conceptId": "C33073",
        "decode": "Mediastinal Lymph Node"
      },
      {
        "submissionValue": "MEDIASTINAL SOFT TISSUE",
        "conceptId": "C164004",
        "decode": "Mediastinal Soft Tissue"
      },
      {
        "submissionValue": "MEDIASTINUM",
        "conceptId": "C12748",
        "decode": "Mediastinum"
      },
      {
        "submissionValue": "MEDIASTINUM, ANTERIOR",
        "conceptId": "C32098",
        "decode": "Anterior Mediastinum"
      },
      {
        "submissionValue": "MEDIASTINUM, MIDDLE",
        "conceptId": "C33123",
        "decode": "Middle Mediastinum"
      },
      {
        "submissionValue": "MEDIASTINUM, POSTERIOR",
        "conceptId": "C33368",
        "decode": "Posterior Mediastinum"
      },
      {
        "submissionValue": "MEDIASTINUM, SUPERIOR",
        "conceptId": "C33684",
        "decode": "Superior Mediastinum"
      },
      {
        "submissionValue": "MEDULLA OBLONGATA",
        "conceptId": "C12442",
        "decode": "Medulla Oblongata"
      },
      {
        "submissionValue": "MENINGES",
        "conceptId": "C12348",
        "decode": "Meninges"
      },
      {
        "submissionValue": "MENTALIS MUSCLE",
        "conceptId": "C186127",
        "decode": "Mentalis Muscle"
      },
      {
        "submissionValue": "MESENTERIC ARTERY",
        "conceptId": "C52975",
        "decode": "Mesenteric Artery"
      },
      {
        "submissionValue": "MESENTERIC LYMPH NODE",
        "conceptId": "C77641",
        "decode": "Mesenteric Lymph Node"
      },
      {
        "submissionValue": "MESENTERIC VEIN",
        "conceptId": "C53055",
        "decode": "Mesenteric Vein"
      },
      {
        "submissionValue": "MESENTERY",
        "conceptId": "C33103",
        "decode": "Mesentery"
      },
      {
        "submissionValue": "MESOTHELIUM",
        "conceptId": "C33105",
        "decode": "Mesothelium"
      },
      {
        "submissionValue": "METACARPAL 1 BASE",
        "conceptId": "C127667",
        "decode": "Metacarpal 1 Base"
      },
      {
        "submissionValue": "METACARPAL BONE 1",
        "conceptId": "C52796",
        "decode": "Metacarpal Bone Digit 1"
      },
      {
        "submissionValue": "METACARPAL BONE 2",
        "conceptId": "C52795",
        "decode": "Metacarpal Bone Digit 2"
      },
      {
        "submissionValue": "METACARPAL BONE 3",
        "conceptId": "C52794",
        "decode": "Metacarpal Bone Digit 3"
      },
      {
        "submissionValue": "METACARPAL BONE 4",
        "conceptId": "C52793",
        "decode": "Metacarpal Bone Digit 4"
      },
      {
        "submissionValue": "METACARPAL BONE 5",
        "conceptId": "C52792",
        "decode": "Metacarpal Bone Digit 5"
      },
      {
        "submissionValue": "METACARPAL BONE",
        "conceptId": "C12751",
        "decode": "Metacarpal Bone"
      },
      {
        "submissionValue": "METACARPOPHALANGEAL JOINT 1",
        "conceptId": "C102316",
        "decode": "Metacarpophalangeal Joint 1"
      },
      {
        "submissionValue": "METACARPOPHALANGEAL JOINT 2",
        "conceptId": "C102317",
        "decode": "Metacarpophalangeal Joint 2"
      },
      {
        "submissionValue": "METACARPOPHALANGEAL JOINT 3",
        "conceptId": "C102318",
        "decode": "Metacarpophalangeal Joint 3"
      },
      {
        "submissionValue": "METACARPOPHALANGEAL JOINT 4",
        "conceptId": "C102319",
        "decode": "Metacarpophalangeal Joint 4"
      },
      {
        "submissionValue": "METACARPOPHALANGEAL JOINT 5",
        "conceptId": "C102320",
        "decode": "Metacarpophalangeal Joint 5"
      },
      {
        "submissionValue": "METATARSAL BONE",
        "conceptId": "C12752",
        "decode": "Metatarsal Bone"
      },
      {
        "submissionValue": "METATARSOPHALANGEAL JOINT 1",
        "conceptId": "C102321",
        "decode": "Metatarsophalangeal Joint 1"
      },
      {
        "submissionValue": "METATARSOPHALANGEAL JOINT 2",
        "conceptId": "C102322",
        "decode": "Metatarsophalangeal Joint 2"
      },
      {
        "submissionValue": "METATARSOPHALANGEAL JOINT 3",
        "conceptId": "C102323",
        "decode": "Metatarsophalangeal Joint 3"
      },
      {
        "submissionValue": "METATARSOPHALANGEAL JOINT 4",
        "conceptId": "C102324",
        "decode": "Metatarsophalangeal Joint 4"
      },
      {
        "submissionValue": "METATARSOPHALANGEAL JOINT 5",
        "conceptId": "C102325",
        "decode": "Metatarsophalangeal Joint 5"
      },
      {
        "submissionValue": "METATARSOPHALANGEAL JOINT",
        "conceptId": "C33108",
        "decode": "Metatarsophalangeal Joint"
      },
      {
        "submissionValue": "MID-CIRCUMFLEX ARTERY",
        "conceptId": "C102326",
        "decode": "Mid-Circumflex Artery"
      },
      {
        "submissionValue": "MID-JUGULAR LYMPH NODE",
        "conceptId": "C132511",
        "decode": "Middle Jugular Lymph Node Group (Level III)"
      },
      {
        "submissionValue": "MID-LAD ARTERY",
        "conceptId": "C102328",
        "decode": "Mid-Left Anterior Descending Artery"
      },
      {
        "submissionValue": "MID-RIGHT CORONARY ARTERY CONDUIT",
        "conceptId": "C102329",
        "decode": "Mid-Right Coronary Artery Conduit"
      },
      {
        "submissionValue": "MID/DISTAL LEFT ANTERIOR DESCENDING CORONARY ARTERY AND ALL DIAGONAL CORONARY BRANCHES",
        "conceptId": "C102327",
        "decode": "Mid-Distal Left Anterior Descending Coronary Artery and All Diagonal Coronary Branches"
      },
      {
        "submissionValue": "MIDBRAIN",
        "conceptId": "C12510",
        "decode": "Mesencephalon"
      },
      {
        "submissionValue": "MIDDLE CEREBRAL ARTERY",
        "conceptId": "C12830",
        "decode": "Middle Cerebral Artery"
      },
      {
        "submissionValue": "MIDDLE EAR",
        "conceptId": "C12274",
        "decode": "Middle Ear"
      },
      {
        "submissionValue": "MIDDLE FRONTAL GYRUS",
        "conceptId": "C33118",
        "decode": "Middle Frontal Gyrus"
      },
      {
        "submissionValue": "MIDDLE PHALANX 2 OF THE HAND",
        "conceptId": "C142297",
        "decode": "Hand Digit 2 Middle Phalanx"
      },
      {
        "submissionValue": "MIDDLE PHALANX 3 OF THE HAND",
        "conceptId": "C142298",
        "decode": "Hand Digit 3 Middle Phalanx"
      },
      {
        "submissionValue": "MIDDLE PHALANX 4 OF THE HAND",
        "conceptId": "C142299",
        "decode": "Hand Digit 4 Middle Phalanx"
      },
      {
        "submissionValue": "MIDDLE PHALANX 5 OF THE HAND",
        "conceptId": "C142300",
        "decode": "Hand Digit 5 Middle Phalanx"
      },
      {
        "submissionValue": "MIDDLE TEMPORAL GYRUS",
        "conceptId": "C33125",
        "decode": "Middle Temporal Gyrus"
      },
      {
        "submissionValue": "MITRAL VALVE ANNULUS",
        "conceptId": "C127306",
        "decode": "Mitral Valve Annulus"
      },
      {
        "submissionValue": "MITRAL VALVE",
        "conceptId": "C12753",
        "decode": "Mitral Valve"
      },
      {
        "submissionValue": "MITRAL VALVE, ANTERIOR ANNULUS",
        "conceptId": "C127668",
        "decode": "Anterior Annulus of the Mitral Valve"
      },
      {
        "submissionValue": "MITRAL VALVE, ANTERIOR CUSP",
        "conceptId": "C127669",
        "decode": "Anterior Cusp of the Mitral Valve"
      },
      {
        "submissionValue": "MITRAL VALVE, POSTERIOR ANNULUS",
        "conceptId": "C127670",
        "decode": "Posterior Annulus of the Mitral Valve"
      },
      {
        "submissionValue": "MITRAL VALVE, POSTERIOR CUSP",
        "conceptId": "C127671",
        "decode": "Posterior Cusp of the Mitral Valve"
      },
      {
        "submissionValue": "MOTOR CORTEX",
        "conceptId": "C97339",
        "decode": "Primary Motor Cortex"
      },
      {
        "submissionValue": "MUCOSA OF THE LIP",
        "conceptId": "C12226",
        "decode": "Mucosa of the Lip"
      },
      {
        "submissionValue": "MUCOSA",
        "conceptId": "C13166",
        "decode": "Mucosa"
      },
      {
        "submissionValue": "MUSCLE",
        "conceptId": "C13056",
        "decode": "Muscle"
      },
      {
        "submissionValue": "MUSCULOSKELETAL SYSTEM",
        "conceptId": "C12754",
        "decode": "Musculoskeletal System"
      },
      {
        "submissionValue": "MYOCARDIUM",
        "conceptId": "C12371",
        "decode": "Myocardium"
      },
      {
        "submissionValue": "MYOMETRIUM",
        "conceptId": "C12314",
        "decode": "Myometrium"
      },
      {
        "submissionValue": "NAIL BED",
        "conceptId": "C170605",
        "decode": "Nail Bed"
      },
      {
        "submissionValue": "NAIL",
        "conceptId": "C33156",
        "decode": "Nail"
      },
      {
        "submissionValue": "NASAL BONE",
        "conceptId": "C33157",
        "decode": "Nasal Bone"
      },
      {
        "submissionValue": "NASAL CAVITY",
        "conceptId": "C12424",
        "decode": "Nasal Cavity"
      },
      {
        "submissionValue": "NASAL SEPTUM",
        "conceptId": "C33160",
        "decode": "Nasal Septum"
      },
      {
        "submissionValue": "NASAL SOFT TISSUE",
        "conceptId": "C164006",
        "decode": "Nasal Soft Tissue"
      },
      {
        "submissionValue": "NASOPHARYNX",
        "conceptId": "C12423",
        "decode": "Nasopharynx"
      },
      {
        "submissionValue": "NAVICULAR BONE",
        "conceptId": "C33162",
        "decode": "Navicular Bone"
      },
      {
        "submissionValue": "NECK EXTENSOR MUSCLES",
        "conceptId": "C204658",
        "decode": "Neck Extensor Muscles"
      },
      {
        "submissionValue": "NECK SOFT TISSUE",
        "conceptId": "C225642",
        "decode": "Neck Soft Tissue"
      },
      {
        "submissionValue": "NECK",
        "conceptId": "C13063",
        "decode": "Neck"
      },
      {
        "submissionValue": "NERVE",
        "conceptId": "C12466",
        "decode": "Nerve"
      },
      {
        "submissionValue": "NIPPLE",
        "conceptId": "C12299",
        "decode": "Nipple"
      },
      {
        "submissionValue": "NOSE",
        "conceptId": "C12756",
        "decode": "Nose"
      },
      {
        "submissionValue": "NOSTRIL",
        "conceptId": "C33178",
        "decode": "Nostril"
      },
      {
        "submissionValue": "NUCHAL LYMPH NODE",
        "conceptId": "C142301",
        "decode": "Nuchal Lymph Node"
      },
      {
        "submissionValue": "NUCLEUS ACCUMBENS",
        "conceptId": "C52733",
        "decode": "Accumbens Nucleus"
      },
      {
        "submissionValue": "NUCLEUS OF DIAGONAL BAND",
        "conceptId": "C97342",
        "decode": "Nucleus of Diagonal Band"
      },
      {
        "submissionValue": "OBTURATOR EXTERNUS MUSCLE",
        "conceptId": "C33191",
        "decode": "Obturator Externus Muscle"
      },
      {
        "submissionValue": "OBTURATOR INTERNUS MUSCLE",
        "conceptId": "C33192",
        "decode": "Obturator Internus Muscle"
      },
      {
        "submissionValue": "OBTURATOR LYMPH NODE",
        "conceptId": "C88141",
        "decode": "Obturator Lymph Node"
      },
      {
        "submissionValue": "OBTURATOR MUSCLE",
        "conceptId": "C33193",
        "decode": "Obturator Muscle"
      },
      {
        "submissionValue": "OCCIPITAL BONE",
        "conceptId": "C12757",
        "decode": "Occipital Bone"
      },
      {
        "submissionValue": "OCCIPITAL CORTEX",
        "conceptId": "C177767",
        "decode": "Occipital Lobe Cortex"
      },
      {
        "submissionValue": "OCCIPITAL LOBE",
        "conceptId": "C12355",
        "decode": "Occipital Lobe"
      },
      {
        "submissionValue": "OCCIPITAL LYMPH NODE",
        "conceptId": "C98188",
        "decode": "Occipital Lymph Node"
      },
      {
        "submissionValue": "OCCIPITAL SCALP",
        "conceptId": "C103456",
        "decode": "Occipital Scalp"
      },
      {
        "submissionValue": "OCCIPITO-TEMPORAL REGION",
        "conceptId": "C225643",
        "decode": "Occipito-Temporal Region"
      },
      {
        "submissionValue": "OCULOMOTOR NERVE",
        "conceptId": "C12758",
        "decode": "Oculomotor Nerve"
      },
      {
        "submissionValue": "OLECRANON BURSA",
        "conceptId": "C225644",
        "decode": "Olecranon Bursa"
      },
      {
        "submissionValue": "OLECRANON",
        "conceptId": "C33200",
        "decode": "Olecranon"
      },
      {
        "submissionValue": "OLFACTORY BULB",
        "conceptId": "C28401",
        "decode": "Olfactory Bulb"
      },
      {
        "submissionValue": "OLFACTORY MUCOSA",
        "conceptId": "C33205",
        "decode": "Olfactory Mucosa"
      },
      {
        "submissionValue": "OLFACTORY NERVE",
        "conceptId": "C12759",
        "decode": "Olfactory Nerve"
      },
      {
        "submissionValue": "OMENTUM",
        "conceptId": "C33209",
        "decode": "Omentum"
      },
      {
        "submissionValue": "OPHTHALMIC ARTERY",
        "conceptId": "C33216",
        "decode": "Ophthalmic Artery"
      },
      {
        "submissionValue": "OPPONENS POLLICIS MUSCLE",
        "conceptId": "C150853",
        "decode": "Opponens Pollicis Muscle"
      },
      {
        "submissionValue": "OPTIC CHIASM",
        "conceptId": "C90609",
        "decode": "Optic Chiasm"
      },
      {
        "submissionValue": "OPTIC DISC",
        "conceptId": "C12760",
        "decode": "Optic Disc"
      },
      {
        "submissionValue": "OPTIC NERVE",
        "conceptId": "C12761",
        "decode": "Optic Nerve"
      },
      {
        "submissionValue": "ORAL CAVITY",
        "conceptId": "C12421",
        "decode": "Oral Cavity"
      },
      {
        "submissionValue": "ORAL MUCOSA",
        "conceptId": "C77637",
        "decode": "Oral Mucosa"
      },
      {
        "submissionValue": "ORBICULARIS OCULI MUSCLE",
        "conceptId": "C52886",
        "decode": "Orbicularis Oculi Muscle"
      },
      {
        "submissionValue": "ORBIT",
        "conceptId": "C12347",
        "decode": "Orbit"
      },
      {
        "submissionValue": "OROPHARYNGEAL SOFT TISSUE",
        "conceptId": "C186128",
        "decode": "Oropharyngeal Soft Tissue"
      },
      {
        "submissionValue": "OROPHARYNX",
        "conceptId": "C12762",
        "decode": "Oropharynx"
      },
      {
        "submissionValue": "OSTIOMEATAL COMPLEX",
        "conceptId": "C174318",
        "decode": "Ostiomeatal Complex"
      },
      {
        "submissionValue": "OVARIAN FOLLICLE",
        "conceptId": "C33244",
        "decode": "Ovarian Follicle"
      },
      {
        "submissionValue": "OVARY",
        "conceptId": "C12404",
        "decode": "Ovary"
      },
      {
        "submissionValue": "PALATAL RUGAE",
        "conceptId": "C186129",
        "decode": "Palatal Rugae"
      },
      {
        "submissionValue": "PALATE",
        "conceptId": "C12229",
        "decode": "Palate"
      },
      {
        "submissionValue": "PALATINE BONE",
        "conceptId": "C52745",
        "decode": "Palatine Bone"
      },
      {
        "submissionValue": "PALATINE UVULA",
        "conceptId": "C12232",
        "decode": "Uvula"
      },
      {
        "submissionValue": "PALM",
        "conceptId": "C33252",
        "decode": "Palmar Region"
      },
      {
        "submissionValue": "PALMAR DIGITAL ARTERY",
        "conceptId": "C177994",
        "decode": "Palmar Digital Artery"
      },
      {
        "submissionValue": "PALPEBRAL CONJUNCTIVA",
        "conceptId": "C12901",
        "decode": "Palpebral Conjunctiva"
      },
      {
        "submissionValue": "PALPEBRAL FISSURE",
        "conceptId": "C174322",
        "decode": "Palpebral Fissure"
      },
      {
        "submissionValue": "PANCREAS",
        "conceptId": "C12393",
        "decode": "Pancreas"
      },
      {
        "submissionValue": "PANCREAS, BODY",
        "conceptId": "C12270",
        "decode": "Body of the Pancreas"
      },
      {
        "submissionValue": "PANCREAS, ENDOCRINE",
        "conceptId": "C12608",
        "decode": "Islet of Langerhans"
      },
      {
        "submissionValue": "PANCREAS, EXOCRINE",
        "conceptId": "C32546",
        "decode": "Exocrine Pancreas"
      },
      {
        "submissionValue": "PANCREAS, HEAD",
        "conceptId": "C12269",
        "decode": "Head of the Pancreas"
      },
      {
        "submissionValue": "PANCREAS, NECK",
        "conceptId": "C158551",
        "decode": "Neck of the Pancreas"
      },
      {
        "submissionValue": "PANCREAS, TAIL",
        "conceptId": "C12271",
        "decode": "Tail of the Pancreas"
      },
      {
        "submissionValue": "PANCREATIC DUCT",
        "conceptId": "C12272",
        "decode": "Pancreatic Duct"
      },
      {
        "submissionValue": "PAPILLARY MUSCLE",
        "conceptId": "C33259",
        "decode": "Papillary Muscle"
      },
      {
        "submissionValue": "PARA-AORTIC LYMPH NODE",
        "conceptId": "C77643",
        "decode": "Paraaortic Lymph Node"
      },
      {
        "submissionValue": "PARACAVAL LYMPH NODE",
        "conceptId": "C117869",
        "decode": "Paracaval Lymph Node"
      },
      {
        "submissionValue": "PARACOLIC GUTTER",
        "conceptId": "C89787",
        "decode": "Paracolic Gutter"
      },
      {
        "submissionValue": "PARAESOPHAGEAL LYMPH NODE",
        "conceptId": "C225645",
        "decode": "Paraesophageal Lymph Node"
      },
      {
        "submissionValue": "PARALARYNGEAL LYMPH NODE",
        "conceptId": "C147453",
        "decode": "Paralaryngeal Lymph Node"
      },
      {
        "submissionValue": "PARAMETRIUM",
        "conceptId": "C12320",
        "decode": "Parametrium"
      },
      {
        "submissionValue": "PARANASAL SINUS",
        "conceptId": "C12763",
        "decode": "Paranasal Sinus"
      },
      {
        "submissionValue": "PARAPHARYNGEAL LYMPH NODE",
        "conceptId": "C142302",
        "decode": "Parapharyngeal Lymph Node"
      },
      {
        "submissionValue": "PARASPINAL MUSCLES",
        "conceptId": "C52902",
        "decode": "Erector Spinae"
      },
      {
        "submissionValue": "PARASPINAL REGION",
        "conceptId": "C166000",
        "decode": "Paraspinal Region"
      },
      {
        "submissionValue": "PARASPINAL SOFT TISSUE",
        "conceptId": "C225646",
        "decode": "Paraspinal Soft Tissue"
      },
      {
        "submissionValue": "PARASYMPATHETIC GANGLIA",
        "conceptId": "C52557",
        "decode": "Parasympathetic Ganglion"
      },
      {
        "submissionValue": "PARATHYROID GLAND",
        "conceptId": "C12765",
        "decode": "Parathyroid Gland"
      },
      {
        "submissionValue": "PARATRACHEAL LYMPH NODE",
        "conceptId": "C103426",
        "decode": "Paratracheal Lymph Node"
      },
      {
        "submissionValue": "PARATRACHEAL LYMPH NODE, UPPER",
        "conceptId": "C186130",
        "decode": "Upper Paratracheal Lymph Node"
      },
      {
        "submissionValue": "PARAVERTEBRAL GANGLIA",
        "conceptId": "C97925",
        "decode": "Para-Spinal Ganglion"
      },
      {
        "submissionValue": "PARIETAL BONE",
        "conceptId": "C12766",
        "decode": "Parietal Bone"
      },
      {
        "submissionValue": "PARIETAL CORTEX",
        "conceptId": "C177764",
        "decode": "Parietal Lobe Cortex"
      },
      {
        "submissionValue": "PARIETAL LOBE",
        "conceptId": "C12354",
        "decode": "Parietal Lobe"
      },
      {
        "submissionValue": "PARIETAL PLEURA",
        "conceptId": "C33273",
        "decode": "Parietal Pleura"
      },
      {
        "submissionValue": "PARIETO-OCCIPITAL REGION",
        "conceptId": "C225647",
        "decode": "Parieto-Occipital Region"
      },
      {
        "submissionValue": "PARIETO-TEMPORAL REGION",
        "conceptId": "C225648",
        "decode": "Parieto-Temporal Region"
      },
      {
        "submissionValue": "PAROTID GLAND LYMPH NODE",
        "conceptId": "C33278",
        "decode": "Parotid Gland Lymph Node"
      },
      {
        "submissionValue": "PAROTID GLAND",
        "conceptId": "C12427",
        "decode": "Parotid Gland"
      },
      {
        "submissionValue": "PARS COMPACTA",
        "conceptId": "C97341",
        "decode": "Pars Compacta"
      },
      {
        "submissionValue": "PATELLA",
        "conceptId": "C33282",
        "decode": "Patella"
      },
      {
        "submissionValue": "PATELLAR TENDON",
        "conceptId": "C187835",
        "decode": "Patellar Tendon"
      },
      {
        "submissionValue": "PAW",
        "conceptId": "C77660",
        "decode": "Paw"
      },
      {
        "submissionValue": "PECTORAL LYMPH NODE",
        "conceptId": "C120322",
        "decode": "Pectoral Lymph Node"
      },
      {
        "submissionValue": "PECTORALIS MAJOR MUSCLE",
        "conceptId": "C33284",
        "decode": "Pectoralis Major"
      },
      {
        "submissionValue": "PECTORALIS MINOR MUSCLE",
        "conceptId": "C33285",
        "decode": "Pectoralis Minor"
      },
      {
        "submissionValue": "PELVIC BONE",
        "conceptId": "C33287",
        "decode": "Pelvic Bone"
      },
      {
        "submissionValue": "PELVIC LYMPH NODE",
        "conceptId": "C12363",
        "decode": "Pelvic Lymph Node"
      },
      {
        "submissionValue": "PELVIC MUSCLE",
        "conceptId": "C225649",
        "decode": "Pelvic Muscle"
      },
      {
        "submissionValue": "PELVIC SIDEWALL",
        "conceptId": "C189531",
        "decode": "Pelvic Sidewall"
      },
      {
        "submissionValue": "PELVIC SOFT TISSUE",
        "conceptId": "C225650",
        "decode": "Pelvic Soft Tissue"
      },
      {
        "submissionValue": "PELVIS",
        "conceptId": "C12767",
        "decode": "Pelvis"
      },
      {
        "submissionValue": "PENILE ARTERY",
        "conceptId": "C177995",
        "decode": "Penile Artery"
      },
      {
        "submissionValue": "PENIS",
        "conceptId": "C12409",
        "decode": "Penis"
      },
      {
        "submissionValue": "PENIS, BODY",
        "conceptId": "C12325",
        "decode": "Body of the Penis"
      },
      {
        "submissionValue": "PENIS, GLANS",
        "conceptId": "C12324",
        "decode": "Glans Penis"
      },
      {
        "submissionValue": "PENIS, RADIX",
        "conceptId": "C124350",
        "decode": "Radix Penis"
      },
      {
        "submissionValue": "PERI-ORBITAL SOFT TISSUE",
        "conceptId": "C164007",
        "decode": "Periorbital Soft Tissue"
      },
      {
        "submissionValue": "PERIANAL REGION",
        "conceptId": "C99148",
        "decode": "Perianal Region"
      },
      {
        "submissionValue": "PERICARDIAL CAVITY",
        "conceptId": "C38662",
        "decode": "Pericardial Cavity"
      },
      {
        "submissionValue": "PERICARDIAL LYMPH NODE",
        "conceptId": "C117870",
        "decode": "Pericardial Lymph Node"
      },
      {
        "submissionValue": "PERICARDIAL WALL",
        "conceptId": "C127672",
        "decode": "Pericardial Wall"
      },
      {
        "submissionValue": "PERICARDIUM",
        "conceptId": "C13005",
        "decode": "Pericardium"
      },
      {
        "submissionValue": "PERIFACIAL LYMPH NODE",
        "conceptId": "C170601",
        "decode": "Perifacial Lymph Node"
      },
      {
        "submissionValue": "PERIHILAR LYMPH NODE",
        "conceptId": "C102330",
        "decode": "Perihilar Lymph Node"
      },
      {
        "submissionValue": "PERIMENINGEAL SPACE",
        "conceptId": "C186131",
        "decode": "Perimeningeal Space"
      },
      {
        "submissionValue": "PERINEUM",
        "conceptId": "C33301",
        "decode": "Perineum"
      },
      {
        "submissionValue": "PERIPANCREATIC LYMPH NODE",
        "conceptId": "C77642",
        "decode": "Pancreatic Lymph Node"
      },
      {
        "submissionValue": "PERIPHERAL NERVE",
        "conceptId": "C12768",
        "decode": "Peripheral Nerve"
      },
      {
        "submissionValue": "PERIRECTAL LYMPH NODE",
        "conceptId": "C154774",
        "decode": "Perirectal Lymph Node"
      },
      {
        "submissionValue": "PERITONEAL CAVITY",
        "conceptId": "C12769",
        "decode": "Peritoneal Cavity"
      },
      {
        "submissionValue": "PERITONEAL FLUID",
        "conceptId": "C77612",
        "decode": "Peritoneal Fluid"
      },
      {
        "submissionValue": "PERITONEAL LYMPH NODE",
        "conceptId": "C77644",
        "decode": "Peritoneal Lymph Node"
      },
      {
        "submissionValue": "PERITONEUM",
        "conceptId": "C12770",
        "decode": "Peritoneum"
      },
      {
        "submissionValue": "PERIUMBILICAL REGION",
        "conceptId": "C139205",
        "decode": "Periumbilical Region"
      },
      {
        "submissionValue": "PERIURETERAL REGION",
        "conceptId": "C132412",
        "decode": "Periureteral Region"
      },
      {
        "submissionValue": "PERIURETHRAL REGION",
        "conceptId": "C111287",
        "decode": "Periurethral Region"
      },
      {
        "submissionValue": "PERIVESICAL REGION",
        "conceptId": "C178003",
        "decode": "Perivesical Region"
      },
      {
        "submissionValue": "PERONEAL ARTERY",
        "conceptId": "C33314",
        "decode": "Peroneal Artery"
      },
      {
        "submissionValue": "PERONEAL NERVE",
        "conceptId": "C52814",
        "decode": "Peroneal Nerve"
      },
      {
        "submissionValue": "PERONEUS BREVIS MUSCLE",
        "conceptId": "C186132",
        "decode": "Peroneus Brevis Muscle"
      },
      {
        "submissionValue": "PERONEUS LONGUS MUSCLE",
        "conceptId": "C53171",
        "decode": "Peroneus Longus"
      },
      {
        "submissionValue": "PES ANSERINE BURSA",
        "conceptId": "C225651",
        "decode": "Pes Anserine Bursa"
      },
      {
        "submissionValue": "PHARYNGEAL TONSIL",
        "conceptId": "C33318",
        "decode": "Pharyngeal Tonsil"
      },
      {
        "submissionValue": "PHARYNX",
        "conceptId": "C12425",
        "decode": "Pharynx"
      },
      {
        "submissionValue": "PHRENIC NERVE",
        "conceptId": "C52813",
        "decode": "Phrenic Nerve"
      },
      {
        "submissionValue": "PINEAL GLAND",
        "conceptId": "C12398",
        "decode": "Pineal Gland"
      },
      {
        "submissionValue": "PISIFORM BONE",
        "conceptId": "C12855",
        "decode": "Pisiform Bone"
      },
      {
        "submissionValue": "PITUITARY GLAND",
        "conceptId": "C12399",
        "decode": "Pituitary Gland"
      },
      {
        "submissionValue": "PLACENTA",
        "conceptId": "C13272",
        "decode": "Placenta"
      },
      {
        "submissionValue": "PLANTAR FLEXOR MUSCLES",
        "conceptId": "C186133",
        "decode": "Plantar Flexor Muscles"
      },
      {
        "submissionValue": "PLEURA",
        "conceptId": "C12469",
        "decode": "Pleura"
      },
      {
        "submissionValue": "PLEURAL CAVITY",
        "conceptId": "C12840",
        "decode": "Pleural Cavity"
      },
      {
        "submissionValue": "PLEURAL FLUID",
        "conceptId": "C77613",
        "decode": "Pleural Fluid"
      },
      {
        "submissionValue": "PONS VAROLII",
        "conceptId": "C12511",
        "decode": "Pons Varolii"
      },
      {
        "submissionValue": "POPLITEAL ARTERY ABOVE KNEE",
        "conceptId": "C116180",
        "decode": "Popliteal Artery Above the Knee"
      },
      {
        "submissionValue": "POPLITEAL ARTERY BELOW KNEE",
        "conceptId": "C116181",
        "decode": "Popliteal Artery Below the Knee"
      },
      {
        "submissionValue": "POPLITEAL ARTERY",
        "conceptId": "C33337",
        "decode": "Popliteal Artery"
      },
      {
        "submissionValue": "POPLITEAL FOSSA",
        "conceptId": "C103222",
        "decode": "Popliteal Fossa"
      },
      {
        "submissionValue": "POPLITEAL LYMPH NODE",
        "conceptId": "C53146",
        "decode": "Popliteal Lymph Node"
      },
      {
        "submissionValue": "POPLITEAL VEIN",
        "conceptId": "C33339",
        "decode": "Popliteal Vein"
      },
      {
        "submissionValue": "PORTA HEPATIS LYMPH NODE",
        "conceptId": "C117871",
        "decode": "Porta Hepatis Lymph Node"
      },
      {
        "submissionValue": "PORTACAVAL LYMPH NODE",
        "conceptId": "C117872",
        "decode": "Portacaval Lymph Node"
      },
      {
        "submissionValue": "PORTAL LYMPH NODE",
        "conceptId": "C77645",
        "decode": "Portal Lymph Node"
      },
      {
        "submissionValue": "PORTAL VEIN BIFURCATION",
        "conceptId": "C132413",
        "decode": "Portal Vein Bifurcation"
      },
      {
        "submissionValue": "PORTAL VEIN",
        "conceptId": "C33343",
        "decode": "Portal Vein"
      },
      {
        "submissionValue": "PORTAL VEIN, LEFT BRANCH",
        "conceptId": "C214695",
        "decode": "Left Portal Vein"
      },
      {
        "submissionValue": "PORTAL VEIN, RIGHT BRANCH",
        "conceptId": "C214696",
        "decode": "Right Portal Vein"
      },
      {
        "submissionValue": "POSTCENTRAL GYRUS",
        "conceptId": "C33346",
        "decode": "Postcentral Gyrus"
      },
      {
        "submissionValue": "POSTERIOR CEREBRAL ARTERY",
        "conceptId": "C12831",
        "decode": "Posterior Cerebral Artery"
      },
      {
        "submissionValue": "POSTERIOR CERVICAL LYMPH NODE",
        "conceptId": "C103428",
        "decode": "Posterior Cervical Lymph Node"
      },
      {
        "submissionValue": "POSTERIOR CINGULATE CORTEX",
        "conceptId": "C154778",
        "decode": "Posterior Cingulate Cortex"
      },
      {
        "submissionValue": "POSTERIOR DESCENDING SEPTAL PERFORATORS ARTERY",
        "conceptId": "C102348",
        "decode": "Septal Perforator Artery"
      },
      {
        "submissionValue": "POSTERIOR INFERIOR CEREBELLAR ARTERY",
        "conceptId": "C33362",
        "decode": "Posterior Inferior Cerebellar Artery"
      },
      {
        "submissionValue": "POSTERIOR LIMB OF INTERNAL CAPSULE",
        "conceptId": "C201435",
        "decode": "Posterior Limb of Internal Capsule"
      },
      {
        "submissionValue": "POSTERIOR POLE OF THE EYE",
        "conceptId": "C142303",
        "decode": "Posterior Pole of the Eye"
      },
      {
        "submissionValue": "POSTERIOR SUPERIOR ILIAC SPINE",
        "conceptId": "C139206",
        "decode": "Posterior Superior Iliac Spine"
      },
      {
        "submissionValue": "POSTERIOR TIBIAL ARTERY",
        "conceptId": "C12826",
        "decode": "Posterior Tibial Artery"
      },
      {
        "submissionValue": "POSTERIOR TIBIAL VEIN",
        "conceptId": "C33386",
        "decode": "Posterior Tibial Vein"
      },
      {
        "submissionValue": "POSTEROLATERAL SEGMENTAL ARTERY",
        "conceptId": "C116170",
        "decode": "Posterolateral Coronary Artery"
      },
      {
        "submissionValue": "PREAURICULAR LYMPH NODE",
        "conceptId": "C103429",
        "decode": "Preauricular Lymph Node"
      },
      {
        "submissionValue": "PRECENTRAL GYRUS",
        "conceptId": "C33393",
        "decode": "Precentral Gyrus"
      },
      {
        "submissionValue": "PRECUNEUS",
        "conceptId": "C112399",
        "decode": "Precuneus"
      },
      {
        "submissionValue": "PREFRONTAL CORTEX",
        "conceptId": "C154779",
        "decode": "Prefrontal Cortex"
      },
      {
        "submissionValue": "PRELARYNGEAL LYMPH NODE",
        "conceptId": "C147454",
        "decode": "Prelaryngeal Lymph Node"
      },
      {
        "submissionValue": "PREMAXILLA BONE",
        "conceptId": "C186134",
        "decode": "Premaxilla Bone"
      },
      {
        "submissionValue": "PREPATELLAR BURSA",
        "conceptId": "C225652",
        "decode": "Prepatellar Bursa"
      },
      {
        "submissionValue": "PREPUTIAL GLAND",
        "conceptId": "C79432",
        "decode": "Preputial Gland"
      },
      {
        "submissionValue": "PRESACRAL LYMPH NODE",
        "conceptId": "C154775",
        "decode": "Presacral Lymph Node"
      },
      {
        "submissionValue": "PRESACRAL SPACE",
        "conceptId": "C132414",
        "decode": "Presacral Space"
      },
      {
        "submissionValue": "PRESPHENOID BONE",
        "conceptId": "C186135",
        "decode": "Presphenoid Bone"
      },
      {
        "submissionValue": "PRETRACHEAL LYMPH NODE",
        "conceptId": "C147455",
        "decode": "Pretracheal Lymph Node"
      },
      {
        "submissionValue": "PREVESICAL LYMPH NODE",
        "conceptId": "C225653",
        "decode": "Prevesical Lymph Node"
      },
      {
        "submissionValue": "PRIMARY VISUAL CORTEX",
        "conceptId": "C97340",
        "decode": "Primary Visual Cortex"
      },
      {
        "submissionValue": "PROCERUS MUSCLE",
        "conceptId": "C166001",
        "decode": "Procerus Muscle"
      },
      {
        "submissionValue": "PROFUNDA FEMORIS ARTERY",
        "conceptId": "C32436",
        "decode": "Deep Femoral Artery"
      },
      {
        "submissionValue": "PROFUNDA FEMORIS VEIN",
        "conceptId": "C154776",
        "decode": "Deep Femoral Vein"
      },
      {
        "submissionValue": "PRONATOR QUADRATUS MUSCLE",
        "conceptId": "C150854",
        "decode": "Pronator Quadratus Muscle"
      },
      {
        "submissionValue": "PRONATOR TERES MUSCLE",
        "conceptId": "C53174",
        "decode": "Pronator Teres Muscle"
      },
      {
        "submissionValue": "PROSTATE BED",
        "conceptId": "C90348",
        "decode": "Prostate Bed"
      },
      {
        "submissionValue": "PROSTATE GLAND",
        "conceptId": "C12410",
        "decode": "Prostate Gland"
      },
      {
        "submissionValue": "PROSTATE GLAND, LATERAL LOBE",
        "conceptId": "C13092",
        "decode": "Lateral Lobe of the Prostate"
      },
      {
        "submissionValue": "PROSTATE GLAND, MIDDLE LOBE",
        "conceptId": "C13094",
        "decode": "Middle Lobe of the Prostate"
      },
      {
        "submissionValue": "PROSTATE GLAND, POSTERIOR LOBE",
        "conceptId": "C13093",
        "decode": "Posterior Lobe of the Prostate"
      },
      {
        "submissionValue": "PROXIMAL CIRCUMFLEX ARTERY",
        "conceptId": "C102331",
        "decode": "Proximal Circumflex Artery"
      },
      {
        "submissionValue": "PROXIMAL INTERPHALANGEAL JOINT 2 OF THE FOOT",
        "conceptId": "C114205",
        "decode": "Proximal Interphalangeal Joint 2 of the Foot"
      },
      {
        "submissionValue": "PROXIMAL INTERPHALANGEAL JOINT 2 OF THE HAND",
        "conceptId": "C114194",
        "decode": "Proximal Interphalangeal Joint 2 of the Hand"
      },
      {
        "submissionValue": "PROXIMAL INTERPHALANGEAL JOINT 2",
        "conceptId": "C102332",
        "decode": "Proximal Interphalangeal Joint 2"
      },
      {
        "submissionValue": "PROXIMAL INTERPHALANGEAL JOINT 3 OF THE FOOT",
        "conceptId": "C114206",
        "decode": "Proximal Interphalangeal Joint 3 of the Foot"
      },
      {
        "submissionValue": "PROXIMAL INTERPHALANGEAL JOINT 3 OF THE HAND",
        "conceptId": "C114195",
        "decode": "Proximal Interphalangeal Joint 3 of the Hand"
      },
      {
        "submissionValue": "PROXIMAL INTERPHALANGEAL JOINT 3",
        "conceptId": "C102333",
        "decode": "Proximal Interphalangeal Joint 3"
      },
      {
        "submissionValue": "PROXIMAL INTERPHALANGEAL JOINT 4 OF THE FOOT",
        "conceptId": "C114207",
        "decode": "Proximal Interphalangeal Joint 4 of the Foot"
      },
      {
        "submissionValue": "PROXIMAL INTERPHALANGEAL JOINT 4 OF THE HAND",
        "conceptId": "C114196",
        "decode": "Proximal Interphalangeal Joint 4 of the Hand"
      },
      {
        "submissionValue": "PROXIMAL INTERPHALANGEAL JOINT 4",
        "conceptId": "C102334",
        "decode": "Proximal Interphalangeal Joint 4"
      },
      {
        "submissionValue": "PROXIMAL INTERPHALANGEAL JOINT 5 OF THE FOOT",
        "conceptId": "C114208",
        "decode": "Proximal Interphalangeal Joint 5 of the Foot"
      },
      {
        "submissionValue": "PROXIMAL INTERPHALANGEAL JOINT 5 OF THE HAND",
        "conceptId": "C114197",
        "decode": "Proximal Interphalangeal Joint 5 of the Hand"
      },
      {
        "submissionValue": "PROXIMAL INTERPHALANGEAL JOINT 5",
        "conceptId": "C102335",
        "decode": "Proximal Interphalangeal Joint 5"
      },
      {
        "submissionValue": "PROXIMAL LAD ARTERY",
        "conceptId": "C102336",
        "decode": "Proximal Left Anterior Descending Artery"
      },
      {
        "submissionValue": "PROXIMAL PHALANX 1 OF THE HAND",
        "conceptId": "C150848",
        "decode": "Hand Digit 1 Proximal Phalanx"
      },
      {
        "submissionValue": "PROXIMAL PHALANX 2 OF THE HAND",
        "conceptId": "C142304",
        "decode": "Hand Digit 2 Proximal Phalanx"
      },
      {
        "submissionValue": "PROXIMAL PHALANX 3 OF THE HAND",
        "conceptId": "C142305",
        "decode": "Hand Digit 3 Proximal Phalanx"
      },
      {
        "submissionValue": "PROXIMAL PHALANX 4 OF THE HAND",
        "conceptId": "C142306",
        "decode": "Hand Digit 4 Proximal Phalanx"
      },
      {
        "submissionValue": "PROXIMAL PHALANX 5 OF THE HAND",
        "conceptId": "C142307",
        "decode": "Hand Digit 5 Proximal Phalanx"
      },
      {
        "submissionValue": "PROXIMAL RIGHT CORONARY ARTERY CONDUIT",
        "conceptId": "C102337",
        "decode": "Proximal Right Coronary Artery Conduit"
      },
      {
        "submissionValue": "PROXIMAL URETHRA",
        "conceptId": "C115335",
        "decode": "Proximal Urethra"
      },
      {
        "submissionValue": "PUBIC BONE",
        "conceptId": "C33423",
        "decode": "Pubic Bone"
      },
      {
        "submissionValue": "PUBIC SYMPHYSIS",
        "conceptId": "C33425",
        "decode": "Pubic Symphysis"
      },
      {
        "submissionValue": "PULMONARY ARTERY BRANCH",
        "conceptId": "C12774",
        "decode": "Pulmonary Artery"
      },
      {
        "submissionValue": "PULMONARY INTERLOBAR LYMPH NODE",
        "conceptId": "C225654",
        "decode": "Pulmonary Interlobar Lymph Node"
      },
      {
        "submissionValue": "PULMONARY LIGAMENT LYMPH NODE",
        "conceptId": "C225655",
        "decode": "Pulmonary Ligament Lymph Node"
      },
      {
        "submissionValue": "PULMONARY LOBAR LYMPH NODE",
        "conceptId": "C225656",
        "decode": "Pulmonary Lobar Lymph Node"
      },
      {
        "submissionValue": "PULMONARY LYMPH NODE",
        "conceptId": "C191304",
        "decode": "Pulmonary Lymph Node"
      },
      {
        "submissionValue": "PULMONARY SEGMENTAL LYMPH NODE",
        "conceptId": "C225657",
        "decode": "Pulmonary Segmental Lymph Node"
      },
      {
        "submissionValue": "PULMONARY SUBSEGMENTAL LYMPH NODE",
        "conceptId": "C225658",
        "decode": "Pulmonary Subsegmental Lymph Node"
      },
      {
        "submissionValue": "PULMONARY TRUNK",
        "conceptId": "C116918",
        "decode": "Pulmonary Trunk"
      },
      {
        "submissionValue": "PULMONARY VALVE",
        "conceptId": "C12775",
        "decode": "Pulmonary Valve"
      },
      {
        "submissionValue": "PULMONARY VALVE, ANTERIOR CUSP",
        "conceptId": "C127673",
        "decode": "Anterior Cusp of the Pulmonary Valve"
      },
      {
        "submissionValue": "PULMONARY VALVE, LEFT CUSP",
        "conceptId": "C127674",
        "decode": "Left Cusp of the Pulmonary Valve"
      },
      {
        "submissionValue": "PULMONARY VALVE, RIGHT CUSP",
        "conceptId": "C127675",
        "decode": "Right Cusp of the Pulmonary Valve"
      },
      {
        "submissionValue": "PULMONARY VEIN",
        "conceptId": "C12776",
        "decode": "Pulmonary Vein"
      },
      {
        "submissionValue": "PUPIL",
        "conceptId": "C33429",
        "decode": "Pupil"
      },
      {
        "submissionValue": "PUTAMEN",
        "conceptId": "C12452",
        "decode": "Putamen"
      },
      {
        "submissionValue": "PYLORIC SPHINCTER",
        "conceptId": "C33433",
        "decode": "Pyloric Sphincter"
      },
      {
        "submissionValue": "PYLORUS",
        "conceptId": "C12260",
        "decode": "Pylorus"
      },
      {
        "submissionValue": "PYRAMIDAL TRACTS, BRAINSTEM",
        "conceptId": "C142308",
        "decode": "Brainstem Portion of the Pyramidal Tracts"
      },
      {
        "submissionValue": "PYRAMIDAL TRACTS, INTERNAL CAPSULE",
        "conceptId": "C142309",
        "decode": "Internal Capsule of the Pyramidal Tracts"
      },
      {
        "submissionValue": "QUADRICEPS MUSCLE",
        "conceptId": "C33441",
        "decode": "Quadriceps Muscle of the Thigh"
      },
      {
        "submissionValue": "RADIAL ARTERY",
        "conceptId": "C12838",
        "decode": "Radial Artery"
      },
      {
        "submissionValue": "RADIAL NERVE",
        "conceptId": "C52812",
        "decode": "Radial Nerve"
      },
      {
        "submissionValue": "RADIAL SULCUS",
        "conceptId": "C187836",
        "decode": "Radial Sulcus"
      },
      {
        "submissionValue": "RADIUS SHAFT",
        "conceptId": "C120674",
        "decode": "Radius Shaft"
      },
      {
        "submissionValue": "RADIUS",
        "conceptId": "C12777",
        "decode": "Radius Bone"
      },
      {
        "submissionValue": "RADIUS-LUNATE JOINT",
        "conceptId": "C142310",
        "decode": "Radius-Lunate Joint"
      },
      {
        "submissionValue": "RAMUS INTERMEDIUS ARTERY",
        "conceptId": "C102338",
        "decode": "Ramus Intermedius Artery"
      },
      {
        "submissionValue": "RAPHE",
        "conceptId": "C97335",
        "decode": "Raphe Nuclei"
      },
      {
        "submissionValue": "RECTO-UTERINE POUCH",
        "conceptId": "C33447",
        "decode": "Recto-Vaginal Pouch"
      },
      {
        "submissionValue": "RECTOSIGMOID JUNCTION",
        "conceptId": "C54188",
        "decode": "Rectosigmoid Region"
      },
      {
        "submissionValue": "RECTOVAGINAL SPACE",
        "conceptId": "C142311",
        "decode": "Rectovaginal Space"
      },
      {
        "submissionValue": "RECTUM",
        "conceptId": "C12390",
        "decode": "Rectum"
      },
      {
        "submissionValue": "RECTUM, LOWER THIRD",
        "conceptId": "C225659",
        "decode": "Lower Third of Rectum"
      },
      {
        "submissionValue": "RECTUM, MIDDLE THIRD",
        "conceptId": "C225660",
        "decode": "Middle Third of Rectum"
      },
      {
        "submissionValue": "RECTUM, UPPER THIRD",
        "conceptId": "C225661",
        "decode": "Upper Third of Rectum"
      },
      {
        "submissionValue": "RECTUS FEMORIS MUSCLE",
        "conceptId": "C53175",
        "decode": "Rectus Femoris"
      },
      {
        "submissionValue": "REGIONAL LYMPH NODE",
        "conceptId": "C49018",
        "decode": "Regional Lymph Node"
      },
      {
        "submissionValue": "RENAL ARTERY",
        "conceptId": "C12778",
        "decode": "Renal Artery"
      },
      {
        "submissionValue": "RENAL BED",
        "conceptId": "C131138",
        "decode": "Renal Bed"
      },
      {
        "submissionValue": "RENAL FOSSA",
        "conceptId": "C142312",
        "decode": "Renal Fossa"
      },
      {
        "submissionValue": "RENAL PAPILLA",
        "conceptId": "C33460",
        "decode": "Renal Papilla"
      },
      {
        "submissionValue": "RENAL PELVIS",
        "conceptId": "C12887",
        "decode": "Renal Pelvis"
      },
      {
        "submissionValue": "RENAL VEIN",
        "conceptId": "C33462",
        "decode": "Renal Vein"
      },
      {
        "submissionValue": "RESPIRATORY SYSTEM",
        "conceptId": "C12779",
        "decode": "Respiratory System"
      },
      {
        "submissionValue": "RETINA",
        "conceptId": "C12343",
        "decode": "Retina"
      },
      {
        "submissionValue": "RETINAL ARTERY",
        "conceptId": "C52997",
        "decode": "Retinal Artery"
      },
      {
        "submissionValue": "RETINAL NERVE FIBER LAYER",
        "conceptId": "C32953",
        "decode": "Layer of the Ophthalmic Nerve Fibers"
      },
      {
        "submissionValue": "RETINAL PIGMENTED EPITHELIAL LAYER",
        "conceptId": "C33470",
        "decode": "Retinal Pigment Epithelium"
      },
      {
        "submissionValue": "RETINAL VEIN",
        "conceptId": "C53063",
        "decode": "Retinal Vein"
      },
      {
        "submissionValue": "RETRO-ORBITAL REGION",
        "conceptId": "C54155",
        "decode": "Retro-Orbital Region"
      },
      {
        "submissionValue": "RETROAURICULAR LYMPH NODE",
        "conceptId": "C142313",
        "decode": "Retroauricular Lymph Node"
      },
      {
        "submissionValue": "RETROCRURAL LYMPH NODE",
        "conceptId": "C103439",
        "decode": "Retrocrural Lymph Node"
      },
      {
        "submissionValue": "RETROPERITONEAL LYMPH NODE",
        "conceptId": "C98189",
        "decode": "Retroperitoneal Lymph Node"
      },
      {
        "submissionValue": "RETROPERITONEUM",
        "conceptId": "C12298",
        "decode": "Retroperitoneum"
      },
      {
        "submissionValue": "RETROPHARYNGEAL LYMPH NODE",
        "conceptId": "C77649",
        "decode": "Retropharyngeal Lymph Node"
      },
      {
        "submissionValue": "RETROSTERNAL LYMPH NODE",
        "conceptId": "C209626",
        "decode": "Retrosternal Lymph Node"
      },
      {
        "submissionValue": "RETROTRACHEAL LYMPH NODE",
        "conceptId": "C225662",
        "decode": "Retrotracheal Lymph Node"
      },
      {
        "submissionValue": "RHOMBOID MAJOR MUSCLE",
        "conceptId": "C186136",
        "decode": "Rhomboid Major Muscle"
      },
      {
        "submissionValue": "RHOMBOID MINOR MUSCLE",
        "conceptId": "C186137",
        "decode": "Rhomboid Minor Muscle"
      },
      {
        "submissionValue": "RIB 1",
        "conceptId": "C52770",
        "decode": "Rib 1"
      },
      {
        "submissionValue": "RIB 10",
        "conceptId": "C52769",
        "decode": "Rib 10"
      },
      {
        "submissionValue": "RIB 11",
        "conceptId": "C52768",
        "decode": "Rib 11"
      },
      {
        "submissionValue": "RIB 12",
        "conceptId": "C52767",
        "decode": "Rib 12"
      },
      {
        "submissionValue": "RIB 2",
        "conceptId": "C52766",
        "decode": "Rib 2"
      },
      {
        "submissionValue": "RIB 3",
        "conceptId": "C52765",
        "decode": "Rib 3"
      },
      {
        "submissionValue": "RIB 4",
        "conceptId": "C52764",
        "decode": "Rib 4"
      },
      {
        "submissionValue": "RIB 5",
        "conceptId": "C52763",
        "decode": "Rib 5"
      },
      {
        "submissionValue": "RIB 6",
        "conceptId": "C52762",
        "decode": "Rib 6"
      },
      {
        "submissionValue": "RIB 7",
        "conceptId": "C52761",
        "decode": "Rib 7"
      },
      {
        "submissionValue": "RIB 8",
        "conceptId": "C52760",
        "decode": "Rib 8"
      },
      {
        "submissionValue": "RIB 9",
        "conceptId": "C52759",
        "decode": "Rib 9"
      },
      {
        "submissionValue": "RIB",
        "conceptId": "C12782",
        "decode": "Rib"
      },
      {
        "submissionValue": "RIGHT ATRIAL ENDOCARDIUM",
        "conceptId": "C102339",
        "decode": "Right Atrial Endocardium"
      },
      {
        "submissionValue": "RIGHT CORONARY ARTERY OSTIUM",
        "conceptId": "C116169",
        "decode": "Right Coronary Artery Ostium"
      },
      {
        "submissionValue": "RIGHT CORONARY ARTERY, RIGHT POSTERIOR DESCENDING, RIGHT POSTERIOLATERAL AND ACUTE MARGINAL BRANCHES",
        "conceptId": "C102340",
        "decode": "Right Coronary Artery and its Branches"
      },
      {
        "submissionValue": "RIGHT POSTERIOR ATRIOVENTRICULAR ARTERY",
        "conceptId": "C102341",
        "decode": "Right Posterior Atrioventricular Artery"
      },
      {
        "submissionValue": "RIGHT POSTERIOR DESCENDING ARTERY",
        "conceptId": "C102342",
        "decode": "Right Posterior Descending Artery"
      },
      {
        "submissionValue": "RIGHT VENTRICULAR BRANCH",
        "conceptId": "C116171",
        "decode": "Right Ventricular Branch of Right Coronary Artery"
      },
      {
        "submissionValue": "RIGHT VENTRICULAR ENDOCARDIUM",
        "conceptId": "C102343",
        "decode": "Right Ventricular Endocardium"
      },
      {
        "submissionValue": "ROUND LIGAMENT",
        "conceptId": "C12319",
        "decode": "Round Ligament"
      },
      {
        "submissionValue": "S1 DERMATOME",
        "conceptId": "C225663",
        "decode": "S1 Dermatome"
      },
      {
        "submissionValue": "S2 DERMATOME",
        "conceptId": "C225664",
        "decode": "S2 Dermatome"
      },
      {
        "submissionValue": "S3 DERMATOME",
        "conceptId": "C225665",
        "decode": "S3 Dermatome"
      },
      {
        "submissionValue": "S4 DERMATOME",
        "conceptId": "C225666",
        "decode": "S4 Dermatome"
      },
      {
        "submissionValue": "S5 DERMATOME",
        "conceptId": "C225667",
        "decode": "S5 Dermatome"
      },
      {
        "submissionValue": "SACRAL TUBEROSITY",
        "conceptId": "C105447",
        "decode": "Sacral Tuberosity"
      },
      {
        "submissionValue": "SACRAL VERTEBRA",
        "conceptId": "C12853",
        "decode": "Sacral Vertebra"
      },
      {
        "submissionValue": "SACROILIAC JOINT",
        "conceptId": "C33507",
        "decode": "Sacroiliac Joint"
      },
      {
        "submissionValue": "SACRUM",
        "conceptId": "C33508",
        "decode": "Sacrum"
      },
      {
        "submissionValue": "SALIVARY GLAND",
        "conceptId": "C12426",
        "decode": "Salivary Gland"
      },
      {
        "submissionValue": "SALIVARY GLAND, SUBLINGUAL",
        "conceptId": "C12234",
        "decode": "Sublingual Salivary Gland"
      },
      {
        "submissionValue": "SAPHENOUS VEIN",
        "conceptId": "C33511",
        "decode": "Saphenous Vein"
      },
      {
        "submissionValue": "SARTORIUS MUSCLE",
        "conceptId": "C33515",
        "decode": "Sartorius Muscle"
      },
      {
        "submissionValue": "SCALENE LYMPH NODE",
        "conceptId": "C89780",
        "decode": "Scalene Lymph Node"
      },
      {
        "submissionValue": "SCALP",
        "conceptId": "C89807",
        "decode": "Scalp"
      },
      {
        "submissionValue": "SCAPHOID BONE",
        "conceptId": "C12854",
        "decode": "Scaphoid Bone"
      },
      {
        "submissionValue": "SCAPHOID-CAPITATE JOINT",
        "conceptId": "C127676",
        "decode": "Scaphoid-Capitate Joint"
      },
      {
        "submissionValue": "SCAPHOID-LUNATE JOINT",
        "conceptId": "C142314",
        "decode": "Scaphoid-Lunate Joint"
      },
      {
        "submissionValue": "SCAPHOID-LUNATE-CAPITATE JOINT",
        "conceptId": "C127677",
        "decode": "Scaphoid-Lunate-Capitate Joint"
      },
      {
        "submissionValue": "SCAPHOID-RADIUS JOINT",
        "conceptId": "C142315",
        "decode": "Scaphoid-Radius Joint"
      },
      {
        "submissionValue": "SCAPHOID-TRAPEZIUM JOINT",
        "conceptId": "C127678",
        "decode": "Scaphoid-Trapezium Joint"
      },
      {
        "submissionValue": "SCAPHOID-TRAPEZOID JOINT",
        "conceptId": "C142316",
        "decode": "Scaphoid-Trapezoid Joint"
      },
      {
        "submissionValue": "SCAPULA",
        "conceptId": "C12783",
        "decode": "Scapula"
      },
      {
        "submissionValue": "SCIATIC NERVE",
        "conceptId": "C52810",
        "decode": "Sciatic Nerve"
      },
      {
        "submissionValue": "SCLERA",
        "conceptId": "C12784",
        "decode": "Sclera"
      },
      {
        "submissionValue": "SCROTUM",
        "conceptId": "C12785",
        "decode": "Scrotum"
      },
      {
        "submissionValue": "SEBACEOUS GLAND",
        "conceptId": "C33519",
        "decode": "Sebaceous Gland"
      },
      {
        "submissionValue": "SECOND DIAGONAL BRANCH ARTERY",
        "conceptId": "C102344",
        "decode": "Second Diagonal Branch Artery"
      },
      {
        "submissionValue": "SECOND LEFT POSTEROLATERAL BRANCH ARTERY",
        "conceptId": "C102345",
        "decode": "Second Left Posterolateral Branch Artery"
      },
      {
        "submissionValue": "SECOND OBTUSE MARGINAL BRANCH ARTERY",
        "conceptId": "C102346",
        "decode": "Second Obtuse Marginal Branch Artery"
      },
      {
        "submissionValue": "SECOND RIGHT POSTEROLATERAL ARTERY",
        "conceptId": "C102347",
        "decode": "Second Right Posterolateral Artery"
      },
      {
        "submissionValue": "SEMIMEMBRANOSUS MUSCLE",
        "conceptId": "C52987",
        "decode": "Semimembranosus Muscle"
      },
      {
        "submissionValue": "SEMINAL VESICLE",
        "conceptId": "C12787",
        "decode": "Seminal Vesicle"
      },
      {
        "submissionValue": "SEMITENDINOSUS MUSCLE",
        "conceptId": "C53176",
        "decode": "Semitendinosus"
      },
      {
        "submissionValue": "SENSORIMOTOR CORTEX",
        "conceptId": "C154777",
        "decode": "Sensorimotor Cortex"
      },
      {
        "submissionValue": "SERRATUS ANTERIOR MUSCLE",
        "conceptId": "C33540",
        "decode": "Serratus Anterior Muscle"
      },
      {
        "submissionValue": "SHIN",
        "conceptId": "C154780",
        "decode": "Shin"
      },
      {
        "submissionValue": "SHOULDER ABDUCTOR MUSCLES",
        "conceptId": "C204654",
        "decode": "Shoulder Abductor Muscles"
      },
      {
        "submissionValue": "SHOULDER EXTERNAL ROTATOR MUSCLES",
        "conceptId": "C204659",
        "decode": "Shoulder External Rotator Muscles"
      },
      {
        "submissionValue": "SHOULDER JOINT TENDONS",
        "conceptId": "C161387",
        "decode": "Shoulder Joint Tendons"
      },
      {
        "submissionValue": "SHOULDER JOINT",
        "conceptId": "C33548",
        "decode": "Shoulder Joint"
      },
      {
        "submissionValue": "SHOULDER MUSCLE",
        "conceptId": "C225668",
        "decode": "Shoulder Muscle"
      },
      {
        "submissionValue": "SHOULDER SOFT TISSUE",
        "conceptId": "C225669",
        "decode": "Shoulder Soft Tissue"
      },
      {
        "submissionValue": "SHOULDER",
        "conceptId": "C25203",
        "decode": "Shoulder"
      },
      {
