{"datasetJSONCreationDateTime":"2024-12-18T15:34:14","datasetJSONVersion":"1.1.0","fileOID":"CDISCPILOT01.suppds","dbLastModifiedDateTime":"2012-04-04T22:16:22","originator":"CDISC Data Exchange Standards Team","sourceSystem":{"name":"SAS on X64_10PRO","version":"9.0401M7"},"studyOID":"CDISCPILOT01","metaDataVersionOID":"CDISC.SDTMIG.3.1.2","metaDataRef":"define.xml","itemGroupOID":"SUPPDS","records":3,"name":"SUPPDS","label":"Supplemental Qualifiers for DS","columns":[{"itemOID":"SUPPDS.STUDYID","name":"STUDYID","label":"Study Identifier","dataType":"string","length":12,"keySequence":1},{"itemOID":"SUPPDS.RDOMAIN","name":"RDOMAIN","label":"Related Domain Abbreviation","dataType":"string","length":2,"keySequence":2},{"itemOID":"SUPPDS.USUBJID","name":"USUBJID","label":"Unique Subject Identifier","dataType":"string","length":11,"keySequence":3},{"itemOID":"SUPPDS.IDVAR","name":"IDVAR","label":"Identifying Variable","dataType":"string","length":8,"keySequence":4},{"itemOID":"SUPPDS.IDVARVAL","name":"IDVARVAL","label":"Identifying Variable Value","dataType":"string","length":200,"keySequence":5},{"itemOID":"SUPPDS.QNAM","name":"QNAM","label":"Qualifier Variable Name","dataType":"string","length":8,"keySequence":6},{"itemOID":"SUPPDS.QLABEL","name":"QLABEL","label":"Qualifier Variable Label","dataType":"string","length":40},{"itemOID":"SUPPDS.QVAL","name":"QVAL","label":"Data Value","dataType":"string","length":200},{"itemOID":"SUPPDS.QORIG","name":"QORIG","label":"Origin","dataType":"string","length":200},{"itemOID":"SUPPDS.QEVAL","name":"QEVAL","label":"Evaluator","dataType":"string","length":200}],"rows":[["CDISCPILOT01","DS","01-703-1175","DSSEQ","1","ENTCRIT","PROTOCOL ENTRY CRITERIA NOT MET","16","CRF",""],["CDISCPILOT01","DS","01-705-1382","DSSEQ","1","ENTCRIT","PROTOCOL ENTRY CRITERIA NOT MET","25","CRF",""],["CDISCPILOT01","DS","01-708-1372","DSSEQ","1","ENTCRIT","PROTOCOL ENTRY CRITERIA NOT MET","16","CRF",""]]}