{"datasetJSONCreationDateTime":"2024-12-18T15:34:13","datasetJSONVersion":"1.1.0","fileOID":"CDISCPILOT01.sc","dbLastModifiedDateTime":"2012-04-04T22:16:22","originator":"CDISC Data Exchange Standards Team","sourceSystem":{"name":"SAS on X64_10PRO","version":"9.0401M7"},"studyOID":"CDISCPILOT01","metaDataVersionOID":"CDISC.SDTMIG.3.1.2","metaDataRef":"define.xml","itemGroupOID":"SC","records":254,"name":"SC","label":"Subject Characteristics","columns":[{"itemOID":"SC.STUDYID","name":"STUDYID","label":"Study Identifier","dataType":"string","length":12,"keySequence":1},{"itemOID":"SC.DOMAIN","name":"DOMAIN","label":"Domain Abbreviation","dataType":"string","length":2},{"itemOID":"SC.USUBJID","name":"USUBJID","label":"Unique Subject Identifier","dataType":"string","length":11,"keySequence":2},{"itemOID":"SC.SCSEQ","name":"SCSEQ","label":"Sequence Number","dataType":"integer"},{"itemOID":"SC.SCTESTCD","name":"SCTESTCD","label":"Subject Characteristic Short Name","dataType":"string","length":8,"keySequence":3},{"itemOID":"SC.SCTEST","name":"SCTEST","label":"Subject Characteristic","dataType":"string","length":18},{"itemOID":"SC.SCCAT","name":"SCCAT","label":"Category for Subject Characteristic","dataType":"string","length":9},{"itemOID":"SC.SCORRES","name":"SCORRES","label":"Result or Finding in Original Units","dataType":"string","length":2},{"itemOID":"SC.SCORRESU","name":"SCORRESU","label":"Original Units","dataType":"string","length":5},{"itemOID":"SC.SCSTRESC","name":"SCSTRESC","label":"Character Result/Finding in Std Format","dataType":"string","length":2},{"itemOID":"SC.SCSTRESN","name":"SCSTRESN","label":"Numeric Result/Finding in Standard Units","dataType":"integer"},{"itemOID":"SC.SCSTRESU","name":"SCSTRESU","label":"Standard Units","dataType":"string","length":5},{"itemOID":"SC.SCDTC","name":"SCDTC","label":"Date/Time of Collection","dataType":"date"},{"itemOID":"SC.SCDY","name":"SCDY","label":"Study Day of Examination","dataType":"integer"}],"rows":[["CDISCPILOT01","SC","01-701-1015",1,"EDLEVEL","EDUCATION LEVEL","EDUCATION","16","YEARS","16",16,"YEARS","2013-12-26",-7],["CDISCPILOT01","SC","01-701-1023",1,"EDLEVEL","EDUCATION LEVEL","EDUCATION","14","YEARS","14",14,"YEARS","2012-07-22",-14],["CDISCPILOT01","SC","01-701-1028",1,"EDLEVEL","EDUCATION LEVEL","EDUCATION","16","YEARS","16",16,"YEARS","2013-07-11",-8],["CDISCPILOT01","SC","01-701-1033",1,"EDLEVEL","EDUCATION LEVEL","EDUCATION","12","YEARS","12",12,"YEARS","2014-03-10",-8],["CDISCPILOT01","SC","01-701-1034",1,"EDLEVEL","EDUCATION LEVEL","EDUCATION","9","YEARS","9",9,"YEARS","2014-06-24",-7],["CDISCPILOT01","SC","01-701-1047",1,"EDLEVEL","EDUCATION LEVEL","EDUCATION","8","YEARS","8",8,"YEARS","2013-01-22",-21],["CDISCPILOT01","SC","01-701-1097",1,"EDLEVEL","EDUCATION LEVEL","EDUCATION","18","YEARS","18",18,"YEARS","2013-12-23",-9],["CDISCPILOT01","SC","01-701-1111",1,"EDLEVEL","EDUCATION LEVEL","EDUCATION","22","YEARS","22",22,"YEARS","2012-08-25",-13],["CDISCPILOT01","SC","01-701-1115",1,"EDLEVEL","EDUCATION LEVEL","EDUCATION","12","YEARS","12",12,"YEARS","2012-11-23",-7],["CDISCPILOT01","SC","01-701-1118",1,"EDLEVEL","EDUCATION LEVEL","EDUCATION","14","YEARS","14",14,"YEARS","2014-02-27",-13],["CDISCPILOT01","SC","01-701-1130",1,"EDLEVEL","EDUCATION LEVEL","EDUCATION","12","YEARS","12",12,"YEARS","2014-02-09",-6],["CDISCPILOT01","SC","01-701-1133",1,"EDLEVEL","EDUCATION LEVEL","EDUCATION","10","YEARS","10",10,"YEARS","2012-10-23",-5],["CDISCPILOT01","SC","01-701-1146",1,"EDLEVEL","EDUCATION LEVEL","EDUCATION","16","YEARS","16",16,"YEARS","2013-05-07",-13],["CDISCPILOT01","SC","01-701-1148",1,"EDLEVEL","EDUCATION LEVEL","EDUCATION","15","YEARS","15",15,"YEARS","2013-08-14",-9],["CDISCPILOT01","SC","01-701-1153",1,"EDLEVEL","EDUCATION LEVEL","EDUCATION","6","YEARS","6",6,"YEARS","2013-09-06",-17],["CDISCPILOT01","SC","01-701-1180",1,"EDLEVEL","EDUCATION LEVEL","EDUCATION","16","YEARS","16",16,"YEARS","2013-01-28",-15],["CDISCPILOT01","SC","01-701-1181",1,"EDLEVEL","EDUCATION LEVEL","EDUCATION","15","YEARS","15",15,"YEARS","2013-11-26",-9],["CDISCPILOT01","SC","01-701-1188",1,"EDLEVEL","EDUCATION LEVEL","EDUCATION","16","YEARS","16",16,"YEARS","2013-02-03",-12],["CDISCPILOT01","SC","01-701-1192",1,"EDLEVEL","EDUCATION LEVEL","EDUCATION","12","YEARS","12",12,"YEARS","2012-07-08",-14],["CDISCPILOT01","SC","01-701-1203",1,"EDLEVEL","EDUCATION LEVEL","EDUCATION","13","YEARS","13",13,"YEARS","2013-01-25",-8],["CDISCPILOT01","SC","01-701-1211",1,"EDLEVEL","EDUCATION LEVEL","EDUCATION","12","YEARS","12",12,"YEARS","2012-10-30",-16],["CDISCPILOT01","SC","01-701-1234",1,"EDLEVEL","EDUCATION LEVEL","EDUCATION","18","YEARS","18",18,"YEARS","2013-03-20",-10],["CDISCPILOT01","SC","01-701-1239",1,"EDLEVEL","EDUCATION LEVEL","EDUCATION","11","YEARS","11",11,"YEARS","2013-12-28",-14],["CDISCPILOT01","SC","01-701-1275",1,"EDLEVEL","EDUCATION LEVEL","EDUCATION","12","YEARS","12",12,"YEARS","2014-01-25",-13],["CDISCPILOT01","SC","01-701-1287",1,"EDLEVEL","EDUCATION LEVEL","EDUCATION","14","YEARS","14",14,"YEARS","2014-01-17",-8],["CDISCPILOT01","SC","01-701-1294",1,"EDLEVEL","EDUCATION LEVEL","EDUCATION","16","YEARS","16",16,"YEARS","2013-03-17",-7],["CDISCPILOT01","SC","01-701-1302",1,"EDLEVEL","EDUCATION LEVEL","EDUCATION","15","YEARS","15",15,"YEARS","2013-08-20",-9],["CDISCPILOT01","SC","01-701-1317",1,"EDLEVEL","EDUCATION LEVEL","EDUCATION","20","YEARS","20",20,"YEARS","2014-05-10",-12],["CDISCPILOT01","SC","01-701-1324",1,"EDLEVEL","EDUCATION LEVEL","EDUCATION","18","YEARS","18",18,"YEARS","2012-09-16",-16],["CDISCPILOT01","SC","01-701-1341",1,"EDLEVEL","EDUCATION LEVEL","EDUCATION","24","YEARS","24",24,"YEARS","2012-12-22",-14],["CDISCPILOT01","SC","01-701-1345",1,"EDLEVEL","EDUCATION LEVEL","EDUCATION","15","YEARS","15",15,"YEARS","2013-10-01",-7],["CDISCPILOT01","SC","01-701-1360",1,"EDLEVEL","EDUCATION LEVEL","EDUCATION","10","YEARS","10",10,"YEARS","2013-07-24",-7],["CDISCPILOT01","SC","01-701-1363",1,"EDLEVEL","EDUCATION LEVEL","EDUCATION","13","YEARS","13",13,"YEARS","2013-05-20",-10],["CDISCPILOT01","SC","01-701-1383",1,"EDLEVEL","EDUCATION LEVEL","EDUCATION","12","YEARS","12",12,"YEARS","2013-01-22",-13],["CDISCPILOT01","SC","01-701-1387",1,"EDLEVEL","EDUCATION LEVEL","EDUCATION","12","YEARS","12",12,"YEARS","2014-02-23",-17],["CDISCPILOT01","SC","01-701-1392",1,"EDLEVEL","EDUCATION LEVEL","EDUCATION","16","YEARS","16",16,"YEARS","2012-10-17",-11],["CDISCPILOT01","SC","01-701-1415",1,"EDLEVEL","EDUCATION LEVEL","EDUCATION","10","YEARS","10",10,"YEARS","2013-09-15",-8],["CDISCPILOT01","SC","01-701-1429",1,"EDLEVEL","EDUCATION LEVEL","EDUCATION","12","YEARS","12",12,"YEARS","2013-02-25",-22],["CDISCPILOT01","SC","01-701-1440",1,"EDLEVEL","EDUCATION LEVEL","EDUCATION","18","YEARS","18",18,"YEARS","2013-07-24",-15],["CDISCPILOT01","SC","01-701-1442",1,"EDLEVEL","EDUCATION LEVEL","EDUCATION","12","YEARS","12",12,"YEARS","2013-10-17",-9],["CDISCPILOT01","SC","01-701-1444",1,"EDLEVEL","EDUCATION LEVEL","EDUCATION","14","YEARS","14",14,"YEARS","2012-12-31",-5],["CDISCPILOT01","SC","01-702-1082",1,"EDLEVEL","EDUCATION LEVEL","EDUCATION","18","YEARS","18",18,"YEARS","2013-07-03",-23],["CDISCPILOT01","SC","01-703-1042",1,"EDLEVEL","EDUCATION LEVEL","EDUCATION","12","YEARS","12",12,"YEARS","2013-02-23",-7],["CDISCPILOT01","SC","01-703-1076",1,"EDLEVEL","EDUCATION LEVEL","EDUCATION","10","YEARS","10",10,"YEARS","2013-10-17",-8],["CDISCPILOT01","SC","01-703-1086",1,"EDLEVEL","EDUCATION LEVEL","EDUCATION","17","YEARS","17",17,"YEARS","2012-08-22",-11],["CDISCPILOT01","SC","01-703-1096",1,"EDLEVEL","EDUCATION LEVEL","EDUCATION","6","YEARS","6",6,"YEARS","2012-12-19",-37],["CDISCPILOT01","SC","01-703-1100",1,"EDLEVEL","EDUCATION LEVEL","EDUCATION","8","YEARS","8",8,"YEARS","2013-02-28",-13],["CDISCPILOT01","SC","01-703-1119",1,"EDLEVEL","EDUCATION LEVEL","EDUCATION","16","YEARS","16",16,"YEARS","2013-02-02",-18],["CDISCPILOT01","SC","01-703-1175",1,"EDLEVEL","EDUCATION LEVEL","EDUCATION","16","YEARS","16",16,"YEARS","2013-12-13",-7],["CDISCPILOT01","SC","01-703-1182",1,"EDLEVEL","EDUCATION LEVEL","EDUCATION","12","YEARS","12",12,"YEARS","2013-10-08",-9],["CDISCPILOT01","SC","01-703-1197",1,"EDLEVEL","EDUCATION LEVEL","EDUCATION","5","YEARS","5",5,"YEARS","2013-06-01",-15],["CDISCPILOT01","SC","01-703-1210",1,"EDLEVEL","EDUCATION LEVEL","EDUCATION","12","YEARS","12",12,"YEARS","2013-03-08",-8],["CDISCPILOT01","SC","01-703-1258",1,"EDLEVEL","EDUCATION LEVEL","EDUCATION","12","YEARS","12",12,"YEARS","2012-07-10",-10],["CDISCPILOT01","SC","01-703-1279",1,"EDLEVEL","EDUCATION LEVEL","EDUCATION","12","YEARS","12",12,"YEARS","2013-04-27",-16],["CDISCPILOT01","SC","01-703-1295",1,"EDLEVEL","EDUCATION LEVEL","EDUCATION","8","YEARS","8",8,"YEARS","2013-10-24",-28],["CDISCPILOT01","SC","01-703-1299",1,"EDLEVEL","EDUCATION LEVEL","EDUCATION","12","YEARS","12",12,"YEARS","2012-09-07",-5],["CDISCPILOT01","SC","01-703-1335",1,"EDLEVEL","EDUCATION LEVEL","EDUCATION","11","YEARS","11",11,"YEARS","2014-02-28",-17],["CDISCPILOT01","SC","01-703-1379",1,"EDLEVEL","EDUCATION LEVEL","EDUCATION","7","YEARS","7",7,"YEARS","2013-09-12",-10],["CDISCPILOT01","SC","01-703-1403",1,"EDLEVEL","EDUCATION LEVEL","EDUCATION","12","YEARS","12",12,"YEARS","2012-12-05",-7],["CDISCPILOT01","SC","01-703-1439",1,"EDLEVEL","EDUCATION LEVEL","EDUCATION","12","YEARS","12",12,"YEARS","2014-03-04",-8],["CDISCPILOT01","SC","01-704-1008",1,"EDLEVEL","EDUCATION LEVEL","EDUCATION","12","YEARS","12",12,"YEARS","2013-01-06",-7],["CDISCPILOT01","SC","01-704-1009",1,"EDLEVEL","EDUCATION LEVEL","EDUCATION","16","YEARS","16",16,"YEARS","2013-08-20",-7],["CDISCPILOT01","SC","01-704-1010",1,"EDLEVEL","EDUCATION LEVEL","EDUCATION","14","YEARS","14",14,"YEARS","2014-02-08",-13],["CDISCPILOT01","SC","01-704-1017",1,"EDLEVEL","EDUCATION LEVEL","EDUCATION","12","YEARS","12",12,"YEARS","2013-09-20",-16],["CDISCPILOT01","SC","01-704-1025",1,"EDLEVEL","EDUCATION LEVEL","EDUCATION","18","YEARS","18",18,"YEARS","2013-09-18",-9],["CDISCPILOT01","SC","01-704-1065",1,"EDLEVEL","EDUCATION LEVEL","EDUCATION","12","YEARS","12",12,"YEARS","2013-10-17",-7],["CDISCPILOT01","SC","01-704-1074",1,"EDLEVEL","EDUCATION LEVEL","EDUCATION","16","YEARS","16",16,"YEARS","2014-01-19",-3],["CDISCPILOT01","SC","01-704-1093",1,"EDLEVEL","EDUCATION LEVEL","EDUCATION","12","YEARS","12",12,"YEARS","2013-02-22",-21],["CDISCPILOT01","SC","01-704-1114",1,"EDLEVEL","EDUCATION LEVEL","EDUCATION","8","YEARS","8",8,"YEARS","2013-01-09",-14],["CDISCPILOT01","SC","01-704-1120",1,"EDLEVEL","EDUCATION LEVEL","EDUCATION","13","YEARS","13",13,"YEARS","2013-11-18",-14],["CDISCPILOT01","SC","01-704-1127",1,"EDLEVEL","EDUCATION LEVEL","EDUCATION","12","YEARS","12",12,"YEARS","2013-09-16",-16],["CDISCPILOT01","SC","01-704-1135",1,"EDLEVEL","EDUCATION LEVEL","EDUCATION","14","YEARS","14",14,"YEARS","2013-10-23",-8],["CDISCPILOT01","SC","01-704-1164",1,"EDLEVEL","EDUCATION LEVEL","EDUCATION","10","YEARS","10",10,"YEARS","2012-09-11",-8],["CDISCPILOT01","SC","01-704-1218",1,"EDLEVEL","EDUCATION LEVEL","EDUCATION","12","YEARS","12",12,"YEARS","2012-11-11",-8],["CDISCPILOT01","SC","01-704-1233",1,"EDLEVEL","EDUCATION LEVEL","EDUCATION","16","YEARS","16",16,"YEARS","2013-03-08",-13],["CDISCPILOT01","SC","01-704-1241",1,"EDLEVEL","EDUCATION LEVEL","EDUCATION","14","YEARS","14",14,"YEARS","2013-08-14",-11],["CDISCPILOT01","SC","01-704-1260",1,"EDLEVEL","EDUCATION LEVEL","EDUCATION","16","YEARS","16",16,"YEARS","2012-08-23",-7],["CDISCPILOT01","SC","01-704-1266",1,"EDLEVEL","EDUCATION LEVEL","EDUCATION","12","YEARS","12",12,"YEARS","2013-10-05",-8],["CDISCPILOT01","SC","01-704-1323",1,"EDLEVEL","EDUCATION LEVEL","EDUCATION","16","YEARS","16",16,"YEARS","2013-06-13",-25],["CDISCPILOT01","SC","01-704-1325",1,"EDLEVEL","EDUCATION LEVEL","EDUCATION","16","YEARS","16",16,"YEARS","2014-04-16",-7],["CDISCPILOT01","SC","01-704-1332",1,"EDLEVEL","EDUCATION LEVEL","EDUCATION","9","YEARS","9",9,"YEARS","2013-11-24",-15],["CDISCPILOT01","SC","01-704-1351",1,"EDLEVEL","EDUCATION LEVEL","EDUCATION","12","YEARS","12",12,"YEARS","2013-09-26",-16],["CDISCPILOT01","SC","01-704-1388",1,"EDLEVEL","EDUCATION LEVEL","EDUCATION","11","YEARS","11",11,"YEARS","2012-11-28",-9],["CDISCPILOT01","SC","01-704-1435",1,"EDLEVEL","EDUCATION LEVEL","EDUCATION","16","YEARS","16",16,"YEARS","2012-11-01",-16],["CDISCPILOT01","SC","01-704-1445",1,"EDLEVEL","EDUCATION LEVEL","EDUCATION","12","YEARS","12",12,"YEARS","2014-05-01",-10],["CDISCPILOT01","SC","01-705-1018",1,"EDLEVEL","EDUCATION LEVEL","EDUCATION","6","YEARS","6",6,"YEARS","2013-06-30",-5],["CDISCPILOT01","SC","01-705-1031",1,"EDLEVEL","EDUCATION LEVEL","EDUCATION","16","YEARS","16",16,"YEARS","2013-11-17",-10],["CDISCPILOT01","SC","01-705-1059",1,"EDLEVEL","EDUCATION LEVEL","EDUCATION","12","YEARS","12",12,"YEARS","2013-08-02",-3],["CDISCPILOT01","SC","01-705-1186",1,"EDLEVEL","EDUCATION LEVEL","EDUCATION","12","YEARS","12",12,"YEARS","2014-01-03",-5],["CDISCPILOT01","SC","01-705-1199",1,"EDLEVEL","EDUCATION LEVEL","EDUCATION","20","YEARS","20",20,"YEARS","2013-09-11",-5],["CDISCPILOT01","SC","01-705-1280",1,"EDLEVEL","EDUCATION LEVEL","EDUCATION","12","YEARS","12",12,"YEARS","2014-01-11",-6],["CDISCPILOT01","SC","01-705-1281",1,"EDLEVEL","EDUCATION LEVEL","EDUCATION","12","YEARS","12",12,"YEARS","2013-11-26",-2],["CDISCPILOT01","SC","01-705-1282",1,"EDLEVEL","EDUCATION LEVEL","EDUCATION","12","YEARS","12",12,"YEARS","2012-12-23",-3],["CDISCPILOT01","SC","01-705-1292",1,"EDLEVEL","EDUCATION LEVEL","EDUCATION","8","YEARS","8",8,"YEARS","2013-10-11",-3],["CDISCPILOT01","SC","01-705-1303",1,"EDLEVEL","EDUCATION LEVEL","EDUCATION","12","YEARS","12",12,"YEARS","2013-12-10",-6],["CDISCPILOT01","SC","01-705-1310",1,"EDLEVEL","EDUCATION LEVEL","EDUCATION","12","YEARS","12",12,"YEARS","2013-10-26",-7],["CDISCPILOT01","SC","01-705-1349",1,"EDLEVEL","EDUCATION LEVEL","EDUCATION","10","YEARS","10",10,"YEARS","2013-02-24",-14],["CDISCPILOT01","SC","01-705-1377",1,"EDLEVEL","EDUCATION LEVEL","EDUCATION","6","YEARS","6",6,"YEARS","2013-12-29",-6],["CDISCPILOT01","SC","01-705-1382",1,"EDLEVEL","EDUCATION LEVEL","EDUCATION","12","YEARS","12",12,"YEARS","2013-05-09",-4],["CDISCPILOT01","SC","01-705-1393",1,"EDLEVEL","EDUCATION LEVEL","EDUCATION","13","YEARS","13",13,"YEARS","2012-09-02",-5],["CDISCPILOT01","SC","01-705-1431",1,"EDLEVEL","EDUCATION LEVEL","EDUCATION","12","YEARS","12",12,"YEARS","2013-06-16",-7],["CDISCPILOT01","SC","01-706-1041",1,"EDLEVEL","EDUCATION LEVEL","EDUCATION","15","YEARS","15",15,"YEARS","2013-12-21",-10],["CDISCPILOT01","SC","01-706-1049",1,"EDLEVEL","EDUCATION LEVEL","EDUCATION","11","YEARS","11",11,"YEARS","2013-04-30",-14],["CDISCPILOT01","SC","01-706-1384",1,"EDLEVEL","EDUCATION LEVEL","EDUCATION","8","YEARS","8",8,"YEARS","2012-08-25",-21],["CDISCPILOT01","SC","01-707-1037",1,"EDLEVEL","EDUCATION LEVEL","EDUCATION","14","YEARS","14",14,"YEARS","2013-12-12",-8],["CDISCPILOT01","SC","01-707-1206",1,"EDLEVEL","EDUCATION LEVEL","EDUCATION","7","YEARS","7",7,"YEARS","2013-10-20",-8],["CDISCPILOT01","SC","01-708-1019",1,"EDLEVEL","EDUCATION LEVEL","EDUCATION","18","YEARS","18",18,"YEARS","2013-12-10",-10],["CDISCPILOT01","SC","01-708-1032",1,"EDLEVEL","EDUCATION LEVEL","EDUCATION","12","YEARS","12",12,"YEARS","2013-02-02",-7],["CDISCPILOT01","SC","01-708-1084",1,"EDLEVEL","EDUCATION LEVEL","EDUCATION","12","YEARS","12",12,"YEARS","2013-05-01",-8],["CDISCPILOT01","SC","01-708-1087",1,"EDLEVEL","EDUCATION LEVEL","EDUCATION","12","YEARS","12",12,"YEARS","2012-10-06",-16],["CDISCPILOT01","SC","01-708-1158",1,"EDLEVEL","EDUCATION LEVEL","EDUCATION","8","YEARS","8",8,"YEARS","2014-02-01",-7],["CDISCPILOT01","SC","01-708-1171",1,"EDLEVEL","EDUCATION LEVEL","EDUCATION","09","YEARS","09",9,"YEARS","2012-11-25",-11],["CDISCPILOT01","SC","01-708-1178",1,"EDLEVEL","EDUCATION LEVEL","EDUCATION","08","YEARS","08",8,"YEARS","2013-12-13",-16],["CDISCPILOT01","SC","01-708-1213",1,"EDLEVEL","EDUCATION LEVEL","EDUCATION","12","YEARS","12",12,"YEARS","2013-02-01",-8],["CDISCPILOT01","SC","01-708-1216",1,"EDLEVEL","EDUCATION LEVEL","EDUCATION","12","YEARS","12",12,"YEARS","2012-10-14",-10],["CDISCPILOT01","SC","01-708-1236",1,"EDLEVEL","EDUCATION LEVEL","EDUCATION","08","YEARS","08",8,"YEARS","2013-09-08",-13],["CDISCPILOT01","SC","01-708-1253",1,"EDLEVEL","EDUCATION LEVEL","EDUCATION","12","YEARS","12",12,"YEARS","2013-04-26",-11],["CDISCPILOT01","SC","01-708-1272",1,"EDLEVEL","EDUCATION LEVEL","EDUCATION","11","YEARS","11",11,"YEARS","2013-01-22",-15],["CDISCPILOT01","SC","01-708-1286",1,"EDLEVEL","EDUCATION LEVEL","EDUCATION","12","YEARS","12",12,"YEARS","2013-08-25",-16],["CDISCPILOT01","SC","01-708-1296",1,"EDLEVEL","EDUCATION LEVEL","EDUCATION","18","YEARS","18",18,"YEARS","2013-06-07",-7],["CDISCPILOT01","SC","01-708-1297",1,"EDLEVEL","EDUCATION LEVEL","EDUCATION","13","YEARS","13",13,"YEARS","2013-01-15",-10],["CDISCPILOT01","SC","01-708-1316",1,"EDLEVEL","EDUCATION LEVEL","EDUCATION","12","YEARS","12",12,"YEARS","2013-08-15",-8],["CDISCPILOT01","SC","01-708-1336",1,"EDLEVEL","EDUCATION LEVEL","EDUCATION","18","YEARS","18",18,"YEARS","2012-11-21",-16],["CDISCPILOT01","SC","01-708-1342",1,"EDLEVEL","EDUCATION LEVEL","EDUCATION","13","YEARS","13",13,"YEARS","2012-12-21",-8],["CDISCPILOT01","SC","01-708-1347",1,"EDLEVEL","EDUCATION LEVEL","EDUCATION","12","YEARS","12",12,"YEARS","2013-04-11",-9],["CDISCPILOT01","SC","01-708-1348",1,"EDLEVEL","EDUCATION LEVEL","EDUCATION","12","YEARS","12",12,"YEARS","2013-07-28",-8],["CDISCPILOT01","SC","01-708-1353",1,"EDLEVEL","EDUCATION LEVEL","EDUCATION","16","YEARS","16",16,"YEARS","2013-06-17",-17],["CDISCPILOT01","SC","01-708-1372",1,"EDLEVEL","EDUCATION LEVEL","EDUCATION","8","YEARS","8",8,"YEARS","2013-04-03",-9],["CDISCPILOT01","SC","01-708-1378",1,"EDLEVEL","EDUCATION LEVEL","EDUCATION","13","YEARS","13",13,"YEARS","2013-08-24",-10],["CDISCPILOT01","SC","01-708-1406",1,"EDLEVEL","EDUCATION LEVEL","EDUCATION","13","YEARS","13",13,"YEARS","2013-12-06",-20],["CDISCPILOT01","SC","01-708-1428",1,"EDLEVEL","EDUCATION LEVEL","EDUCATION","8","YEARS","8",8,"YEARS","2013-11-02",-7],["CDISCPILOT01","SC","01-709-1001",1,"EDLEVEL","EDUCATION LEVEL","EDUCATION","12","YEARS","12",12,"YEARS","2013-09-20",-18],["CDISCPILOT01","SC","01-709-1007",1,"EDLEVEL","EDUCATION LEVEL","EDUCATION","21","YEARS","21",21,"YEARS","2012-07-21",-10],["CDISCPILOT01","SC","01-709-1020",1,"EDLEVEL","EDUCATION LEVEL","EDUCATION","12","YEARS","12",12,"YEARS","2012-11-22",-9],["CDISCPILOT01","SC","01-709-1029",1,"EDLEVEL","EDUCATION LEVEL","EDUCATION","20","YEARS","20",20,"YEARS","2012-12-10",-15],["CDISCPILOT01","SC","01-709-1081",1,"EDLEVEL","EDUCATION LEVEL","EDUCATION","9","YEARS","9",9,"YEARS","2014-01-09",-9],["CDISCPILOT01","SC","01-709-1088",1,"EDLEVEL","EDUCATION LEVEL","EDUCATION","16","YEARS","16",16,"YEARS","2014-03-30",-13],["CDISCPILOT01","SC","01-709-1099",1,"EDLEVEL","EDUCATION LEVEL","EDUCATION","12","YEARS","12",12,"YEARS","2013-10-14",-11],["CDISCPILOT01","SC","01-709-1102",1,"EDLEVEL","EDUCATION LEVEL","EDUCATION","14","YEARS","14",14,"YEARS","2013-01-07",-8],["CDISCPILOT01","SC","01-709-1168",1,"EDLEVEL","EDUCATION LEVEL","EDUCATION","12","YEARS","12",12,"YEARS","2013-07-25",-8],["CDISCPILOT01","SC","01-709-1217",1,"EDLEVEL","EDUCATION LEVEL","EDUCATION","6","YEARS","6",6,"YEARS","2013-02-16",-16],["CDISCPILOT01","SC","01-709-1238",1,"EDLEVEL","EDUCATION LEVEL","EDUCATION","8","YEARS","8",8,"YEARS","2013-05-02",-13],["CDISCPILOT01","SC","01-709-1259",1,"EDLEVEL","EDUCATION LEVEL","EDUCATION","18","YEARS","18",18,"YEARS","2013-01-13",-13],["CDISCPILOT01","SC","01-709-1285",1,"EDLEVEL","EDUCATION LEVEL","EDUCATION","6","YEARS","6",6,"YEARS","2013-03-17",-7],["CDISCPILOT01","SC","01-709-1301",1,"EDLEVEL","EDUCATION LEVEL","EDUCATION","10","YEARS","10",10,"YEARS","2013-07-14",-5],["CDISCPILOT01","SC","01-709-1306",1,"EDLEVEL","EDUCATION LEVEL","EDUCATION","12","YEARS","12",12,"YEARS","2014-01-19",-15],["CDISCPILOT01","SC","01-709-1309",1,"EDLEVEL","EDUCATION LEVEL","EDUCATION","16","YEARS","16",16,"YEARS","2013-06-09",-10],["CDISCPILOT01","SC","01-709-1312",1,"EDLEVEL","EDUCATION LEVEL","EDUCATION","13","YEARS","13",13,"YEARS","2014-04-13",-7],["CDISCPILOT01","SC","01-709-1326",1,"EDLEVEL","EDUCATION LEVEL","EDUCATION","16","YEARS","16",16,"YEARS","2013-03-21",-15],["CDISCPILOT01","SC","01-709-1329",1,"EDLEVEL","EDUCATION LEVEL","EDUCATION","16","YEARS","16",16,"YEARS","2013-08-01",-14],["CDISCPILOT01","SC","01-709-1339",1,"EDLEVEL","EDUCATION LEVEL","EDUCATION","16","YEARS","16",16,"YEARS","2012-12-15",-8],["CDISCPILOT01","SC","01-709-1424",1,"EDLEVEL","EDUCATION LEVEL","EDUCATION","16","YEARS","16",16,"YEARS","2013-02-15",-16],["CDISCPILOT01","SC","01-710-1002",1,"EDLEVEL","EDUCATION LEVEL","EDUCATION","12","YEARS","12",12,"YEARS","2013-12-30",-15],["CDISCPILOT01","SC","01-710-1006",1,"EDLEVEL","EDUCATION LEVEL","EDUCATION","12","YEARS","12",12,"YEARS","2013-01-27",-14],["CDISCPILOT01","SC","01-710-1021",1,"EDLEVEL","EDUCATION LEVEL","EDUCATION","8","YEARS","8",8,"YEARS","2013-09-19",-8],["CDISCPILOT01","SC","01-710-1027",1,"EDLEVEL","EDUCATION LEVEL","EDUCATION","12","YEARS","12",12,"YEARS","2014-02-03",-25],["CDISCPILOT01","SC","01-710-1045",1,"EDLEVEL","EDUCATION LEVEL","EDUCATION","12","YEARS","12",12,"YEARS","2013-05-20",-14],["CDISCPILOT01","SC","01-710-1053",1,"EDLEVEL","EDUCATION LEVEL","EDUCATION","12","YEARS","12",12,"YEARS","2012-12-15",-11],["CDISCPILOT01","SC","01-710-1060",1,"EDLEVEL","EDUCATION LEVEL","EDUCATION","16","YEARS","16",16,"YEARS","2012-12-24",-8],["CDISCPILOT01","SC","01-710-1070",1,"EDLEVEL","EDUCATION LEVEL","EDUCATION","10","YEARS","10",10,"YEARS","2012-08-28",-11],["CDISCPILOT01","SC","01-710-1077",1,"EDLEVEL","EDUCATION LEVEL","EDUCATION","12","YEARS","12",12,"YEARS","2013-11-03",-14],["CDISCPILOT01","SC","01-710-1078",1,"EDLEVEL","EDUCATION LEVEL","EDUCATION","12","YEARS","12",12,"YEARS","2013-09-06",-11],["CDISCPILOT01","SC","01-710-1083",1,"EDLEVEL","EDUCATION LEVEL","EDUCATION","14","YEARS","14",14,"YEARS","2013-07-09",-13],["CDISCPILOT01","SC","01-710-1137",1,"EDLEVEL","EDUCATION LEVEL","EDUCATION","16","YEARS","16",16,"YEARS","2013-10-03",-8],["CDISCPILOT01","SC","01-710-1142",1,"EDLEVEL","EDUCATION LEVEL","EDUCATION","12","YEARS","12",12,"YEARS","2012-09-12",-20],["CDISCPILOT01","SC","01-710-1154",1,"EDLEVEL","EDUCATION LEVEL","EDUCATION","3","YEARS","3",3,"YEARS","2014-03-08",-21],["CDISCPILOT01","SC","01-710-1166",1,"EDLEVEL","EDUCATION LEVEL","EDUCATION","12","YEARS","12",12,"YEARS","2012-11-10",-20],["CDISCPILOT01","SC","01-710-1183",1,"EDLEVEL","EDUCATION LEVEL","EDUCATION","8","YEARS","8",8,"YEARS","2013-10-24",-23],["CDISCPILOT01","SC","01-710-1187",1,"EDLEVEL","EDUCATION LEVEL","EDUCATION","8","YEARS","8",8,"YEARS","2012-10-26",-15],["CDISCPILOT01","SC","01-710-1235",1,"EDLEVEL","EDUCATION LEVEL","EDUCATION","16","YEARS","16",16,"YEARS","2012-09-13",-13],["CDISCPILOT01","SC","01-710-1249",1,"EDLEVEL","EDUCATION LEVEL","EDUCATION","12","YEARS","12",12,"YEARS","2013-12-19",-9],["CDISCPILOT01","SC","01-710-1264",1,"EDLEVEL","EDUCATION LEVEL","EDUCATION","12","YEARS","12",12,"YEARS","2013-06-02",-11],["CDISCPILOT01","SC","01-710-1270",1,"EDLEVEL","EDUCATION LEVEL","EDUCATION","12","YEARS","12",12,"YEARS","2014-02-01",-11],["CDISCPILOT01","SC","01-710-1271",1,"EDLEVEL","EDUCATION LEVEL","EDUCATION","16","YEARS","16",16,"YEARS","2012-09-04",-23],["CDISCPILOT01","SC","01-710-1278",1,"EDLEVEL","EDUCATION LEVEL","EDUCATION","20","YEARS","20",20,"YEARS","2012-12-13",-11],["CDISCPILOT01","SC","01-710-1300",1,"EDLEVEL","EDUCATION LEVEL","EDUCATION","12","YEARS","12",12,"YEARS","2012-12-04",-11],["CDISCPILOT01","SC","01-710-1314",1,"EDLEVEL","EDUCATION LEVEL","EDUCATION","12","YEARS","12",12,"YEARS","2013-04-21",-3],["CDISCPILOT01","SC","01-710-1315",1,"EDLEVEL","EDUCATION LEVEL","EDUCATION","12","YEARS","12",12,"YEARS","2013-02-12",-15],["CDISCPILOT01","SC","01-710-1354",1,"EDLEVEL","EDUCATION LEVEL","EDUCATION","16","YEARS","16",16,"YEARS","2012-10-29",-13],["CDISCPILOT01","SC","01-710-1358",1,"EDLEVEL","EDUCATION LEVEL","EDUCATION","6","YEARS","6",6,"YEARS","2012-09-02",-15],["CDISCPILOT01","SC","01-710-1368",1,"EDLEVEL","EDUCATION LEVEL","EDUCATION","12","YEARS","12",12,"YEARS","2013-10-21",-2],["CDISCPILOT01","SC","01-710-1385",1,"EDLEVEL","EDUCATION LEVEL","EDUCATION","18","YEARS","18",18,"YEARS","2012-10-21",-8],["CDISCPILOT01","SC","01-710-1408",1,"EDLEVEL","EDUCATION LEVEL","EDUCATION","12","YEARS","12",12,"YEARS","2012-12-26",-10],["CDISCPILOT01","SC","01-711-1012",1,"EDLEVEL","EDUCATION LEVEL","EDUCATION","12","YEARS","12",12,"YEARS","2013-03-20",-14],["CDISCPILOT01","SC","01-711-1036",1,"EDLEVEL","EDUCATION LEVEL","EDUCATION","9","YEARS","9",9,"YEARS","2012-07-20",-9],["CDISCPILOT01","SC","01-711-1143",1,"EDLEVEL","EDUCATION LEVEL","EDUCATION","12","YEARS","12",12,"YEARS","2013-03-30",-4],["CDISCPILOT01","SC","01-711-1433",1,"EDLEVEL","EDUCATION LEVEL","EDUCATION","12","YEARS","12",12,"YEARS","2013-01-23",-4],["CDISCPILOT01","SC","01-713-1043",1,"EDLEVEL","EDUCATION LEVEL","EDUCATION","8","YEARS","8",8,"YEARS","2013-08-17",-29],["CDISCPILOT01","SC","01-713-1073",1,"EDLEVEL","EDUCATION LEVEL","EDUCATION","6","YEARS","6",6,"YEARS","2014-03-15",-15],["CDISCPILOT01","SC","01-713-1106",1,"EDLEVEL","EDUCATION LEVEL","EDUCATION","16","YEARS","16",16,"YEARS","2012-10-03",-28],["CDISCPILOT01","SC","01-713-1141",1,"EDLEVEL","EDUCATION LEVEL","EDUCATION","13","YEARS","13",13,"YEARS","2013-05-23",-8],["CDISCPILOT01","SC","01-713-1179",1,"EDLEVEL","EDUCATION LEVEL","EDUCATION","12","YEARS","12",12,"YEARS","2013-07-11",-29],["CDISCPILOT01","SC","01-713-1209",1,"EDLEVEL","EDUCATION LEVEL","EDUCATION","12","YEARS","12",12,"YEARS","2013-05-16",-11],["CDISCPILOT01","SC","01-713-1256",1,"EDLEVEL","EDUCATION LEVEL","EDUCATION","16","YEARS","16",16,"YEARS","2012-09-10",-9],["CDISCPILOT01","SC","01-713-1269",1,"EDLEVEL","EDUCATION LEVEL","EDUCATION","16","YEARS","16",16,"YEARS","2014-01-14",-13],["CDISCPILOT01","SC","01-713-1448",1,"EDLEVEL","EDUCATION LEVEL","EDUCATION","13","YEARS","13",13,"YEARS","2014-01-05",-14],["CDISCPILOT01","SC","01-714-1035",1,"EDLEVEL","EDUCATION LEVEL","EDUCATION","12","YEARS","12",12,"YEARS","2014-04-03",-14],["CDISCPILOT01","SC","01-714-1068",1,"EDLEVEL","EDUCATION LEVEL","EDUCATION","9","YEARS","9",9,"YEARS","2013-07-31",-8],["CDISCPILOT01","SC","01-714-1195",1,"EDLEVEL","EDUCATION LEVEL","EDUCATION","16","YEARS","16",16,"YEARS","2013-04-16",-10],["CDISCPILOT01","SC","01-714-1288",1,"EDLEVEL","EDUCATION LEVEL","EDUCATION","6","YEARS","6",6,"YEARS","2013-11-24",-10],["CDISCPILOT01","SC","01-714-1375",1,"EDLEVEL","EDUCATION LEVEL","EDUCATION","10","YEARS","10",10,"YEARS","2013-02-23",-3],["CDISCPILOT01","SC","01-714-1425",1,"EDLEVEL","EDUCATION LEVEL","EDUCATION","16","YEARS","16",16,"YEARS","2013-08-11",-4],["CDISCPILOT01","SC","01-715-1085",1,"EDLEVEL","EDUCATION LEVEL","EDUCATION","14","YEARS","14",14,"YEARS","2013-02-03",-13],["CDISCPILOT01","SC","01-715-1107",1,"EDLEVEL","EDUCATION LEVEL","EDUCATION","12","YEARS","12",12,"YEARS","2013-02-12",-14],["CDISCPILOT01","SC","01-715-1155",1,"EDLEVEL","EDUCATION LEVEL","EDUCATION","12","YEARS","12",12,"YEARS","2013-11-29",-14],["CDISCPILOT01","SC","01-715-1207",1,"EDLEVEL","EDUCATION LEVEL","EDUCATION","7","YEARS","7",7,"YEARS","2012-11-12",-6],["CDISCPILOT01","SC","01-715-1319",1,"EDLEVEL","EDUCATION LEVEL","EDUCATION","13","YEARS","13",13,"YEARS","2013-02-03",-14],["CDISCPILOT01","SC","01-715-1321",1,"EDLEVEL","EDUCATION LEVEL","EDUCATION","12","YEARS","12",12,"YEARS","2014-02-06",-5],["CDISCPILOT01","SC","01-715-1397",1,"EDLEVEL","EDUCATION LEVEL","EDUCATION","11","YEARS","11",11,"YEARS","2013-03-20",-14],["CDISCPILOT01","SC","01-715-1405",1,"EDLEVEL","EDUCATION LEVEL","EDUCATION","16","YEARS","16",16,"YEARS","2013-06-27",-9],["CDISCPILOT01","SC","01-716-1024",1,"EDLEVEL","EDUCATION LEVEL","EDUCATION","12","YEARS","12",12,"YEARS","2012-07-06",-3],["CDISCPILOT01","SC","01-716-1026",1,"EDLEVEL","EDUCATION LEVEL","EDUCATION","12","YEARS","12",12,"YEARS","2014-03-23",-10],["CDISCPILOT01","SC","01-716-1030",1,"EDLEVEL","EDUCATION LEVEL","EDUCATION","12","YEARS","12",12,"YEARS","2013-12-25",-3],["CDISCPILOT01","SC","01-716-1044",1,"EDLEVEL","EDUCATION LEVEL","EDUCATION","12","YEARS","12",12,"YEARS","2013-04-20",-7],["CDISCPILOT01","SC","01-716-1063",1,"EDLEVEL","EDUCATION LEVEL","EDUCATION","8","YEARS","8",8,"YEARS","2013-05-06",-3],["CDISCPILOT01","SC","01-716-1071",1,"EDLEVEL","EDUCATION LEVEL","EDUCATION","12","YEARS","12",12,"YEARS","2013-06-03",-5],["CDISCPILOT01","SC","01-716-1094",1,"EDLEVEL","EDUCATION LEVEL","EDUCATION","8","YEARS","8",8,"YEARS","2012-12-16",-3],["CDISCPILOT01","SC","01-716-1103",1,"EDLEVEL","EDUCATION LEVEL","EDUCATION","8","YEARS","8",8,"YEARS","2014-03-18",-2],["CDISCPILOT01","SC","01-716-1108",1,"EDLEVEL","EDUCATION LEVEL","EDUCATION","12","YEARS","12",12,"YEARS","2013-02-04",-8],["CDISCPILOT01","SC","01-716-1151",1,"EDLEVEL","EDUCATION LEVEL","EDUCATION","18","YEARS","18",18,"YEARS","2013-01-23",-9],["CDISCPILOT01","SC","01-716-1157",1,"EDLEVEL","EDUCATION LEVEL","EDUCATION","14","YEARS","14",14,"YEARS","2013-09-23",-9],["CDISCPILOT01","SC","01-716-1160",1,"EDLEVEL","EDUCATION LEVEL","EDUCATION","12","YEARS","12",12,"YEARS","2013-03-23",-13],["CDISCPILOT01","SC","01-716-1167",1,"EDLEVEL","EDUCATION LEVEL","EDUCATION","12","YEARS","12",12,"YEARS","2012-09-30",-8],["CDISCPILOT01","SC","01-716-1177",1,"EDLEVEL","EDUCATION LEVEL","EDUCATION","12","YEARS","12",12,"YEARS","2014-08-29",-4],["CDISCPILOT01","SC","01-716-1189",1,"EDLEVEL","EDUCATION LEVEL","EDUCATION","9","YEARS","9",9,"YEARS","2012-10-07",-2],["CDISCPILOT01","SC","01-716-1229",1,"EDLEVEL","EDUCATION LEVEL","EDUCATION","16","YEARS","16",16,"YEARS","2013-02-14",-6],["CDISCPILOT01","SC","01-716-1298",1,"EDLEVEL","EDUCATION LEVEL","EDUCATION","12","YEARS","12",12,"YEARS","2013-04-04",-4],["CDISCPILOT01","SC","01-716-1308",1,"EDLEVEL","EDUCATION LEVEL","EDUCATION","13","YEARS","13",13,"YEARS","2013-08-23",-5],["CDISCPILOT01","SC","01-716-1311",1,"EDLEVEL","EDUCATION LEVEL","EDUCATION","14","YEARS","14",14,"YEARS","2014-05-08",-6],["CDISCPILOT01","SC","01-716-1364",1,"EDLEVEL","EDUCATION LEVEL","EDUCATION","12","YEARS","12",12,"YEARS","2013-06-27",-7],["CDISCPILOT01","SC","01-716-1373",1,"EDLEVEL","EDUCATION LEVEL","EDUCATION","16","YEARS","16",16,"YEARS","2012-11-24",-20],["CDISCPILOT01","SC","01-716-1418",1,"EDLEVEL","EDUCATION LEVEL","EDUCATION","8","YEARS","8",8,"YEARS","2013-04-27",-8],["CDISCPILOT01","SC","01-716-1441",1,"EDLEVEL","EDUCATION LEVEL","EDUCATION","10","YEARS","10",10,"YEARS","2014-01-13",-9],["CDISCPILOT01","SC","01-716-1447",1,"EDLEVEL","EDUCATION LEVEL","EDUCATION","14","YEARS","14",14,"YEARS","2013-12-10",-6],["CDISCPILOT01","SC","01-717-1004",1,"EDLEVEL","EDUCATION LEVEL","EDUCATION","15","YEARS","15",15,"YEARS","2014-01-01",-13],["CDISCPILOT01","SC","01-717-1109",1,"EDLEVEL","EDUCATION LEVEL","EDUCATION","17","YEARS","17",17,"YEARS","2014-01-20",-7],["CDISCPILOT01","SC","01-717-1174",1,"EDLEVEL","EDUCATION LEVEL","EDUCATION","16","YEARS","16",16,"YEARS","2013-01-16",-6],["CDISCPILOT01","SC","01-717-1201",1,"EDLEVEL","EDUCATION LEVEL","EDUCATION","12","YEARS","12",12,"YEARS","2013-12-12",-7],["CDISCPILOT01","SC","01-717-1344",1,"EDLEVEL","EDUCATION LEVEL","EDUCATION","16","YEARS","16",16,"YEARS","2014-01-01",-10],["CDISCPILOT01","SC","01-717-1357",1,"EDLEVEL","EDUCATION LEVEL","EDUCATION","14","YEARS","14",14,"YEARS","2013-04-21",-10],["CDISCPILOT01","SC","01-717-1446",1,"EDLEVEL","EDUCATION LEVEL","EDUCATION","12","YEARS","12",12,"YEARS","2013-08-20",-12],["CDISCPILOT01","SC","01-718-1066",1,"EDLEVEL","EDUCATION LEVEL","EDUCATION","14","YEARS","14",14,"YEARS","2013-06-28",-9],["CDISCPILOT01","SC","01-718-1079",1,"EDLEVEL","EDUCATION LEVEL","EDUCATION","16","YEARS","16",16,"YEARS","2012-09-11",-8],["CDISCPILOT01","SC","01-718-1101",1,"EDLEVEL","EDUCATION LEVEL","EDUCATION","12","YEARS","12",12,"YEARS","2013-02-01",-16],["CDISCPILOT01","SC","01-718-1139",1,"EDLEVEL","EDUCATION LEVEL","EDUCATION","14","YEARS","14",14,"YEARS","2013-05-03",-16],["CDISCPILOT01","SC","01-718-1150",1,"EDLEVEL","EDUCATION LEVEL","EDUCATION","16","YEARS","16",16,"YEARS","2013-01-12",-7],["CDISCPILOT01","SC","01-718-1170",1,"EDLEVEL","EDUCATION LEVEL","EDUCATION","12","YEARS","12",12,"YEARS","2013-08-25",-22],["CDISCPILOT01","SC","01-718-1172",1,"EDLEVEL","EDUCATION LEVEL","EDUCATION","21","YEARS","21",21,"YEARS","2013-09-15",-6],["CDISCPILOT01","SC","01-718-1250",1,"EDLEVEL","EDUCATION LEVEL","EDUCATION","21","YEARS","21",21,"YEARS","2013-08-21",-31],["CDISCPILOT01","SC","01-718-1254",1,"EDLEVEL","EDUCATION LEVEL","EDUCATION","18","YEARS","18",18,"YEARS","2013-06-28",-12],["CDISCPILOT01","SC","01-718-1328",1,"EDLEVEL","EDUCATION LEVEL","EDUCATION","12","YEARS","12",12,"YEARS","2013-01-28",-4],["CDISCPILOT01","SC","01-718-1355",1,"EDLEVEL","EDUCATION LEVEL","EDUCATION","15","YEARS","15",15,"YEARS","2013-02-12",-16],["CDISCPILOT01","SC","01-718-1371",1,"EDLEVEL","EDUCATION LEVEL","EDUCATION","10","YEARS","10",10,"YEARS","2013-04-11",-15],["CDISCPILOT01","SC","01-718-1427",1,"EDLEVEL","EDUCATION LEVEL","EDUCATION","16","YEARS","16",16,"YEARS","2012-12-13",-4]]}