{"datasetJSONCreationDateTime":"2024-12-18T15:34:16","datasetJSONVersion":"1.1.0","fileOID":"CDISCPILOT01.sv","dbLastModifiedDateTime":"2012-04-04T22:16:22","originator":"CDISC Data Exchange Standards Team","sourceSystem":{"name":"SAS on X64_10PRO","version":"9.0401M7"},"studyOID":"CDISCPILOT01","metaDataVersionOID":"CDISC.SDTMIG.3.1.2","metaDataRef":"define.xml","itemGroupOID":"SV","records":3559,"name":"SV","label":"Subject Visits","columns":[{"itemOID":"SV.STUDYID","name":"STUDYID","label":"Study Identifier","dataType":"string","length":12,"keySequence":1},{"itemOID":"SV.DOMAIN","name":"DOMAIN","label":"Domain Abbreviation","dataType":"string","length":2},{"itemOID":"SV.USUBJID","name":"USUBJID","label":"Unique Subject Identifier","dataType":"string","length":11,"keySequence":2},{"itemOID":"SV.VISITNUM","name":"VISITNUM","label":"Visit Number","dataType":"decimal","displayFormat":"8.1","keySequence":3},{"itemOID":"SV.VISIT","name":"VISIT","label":"Visit Name","dataType":"string","length":19},{"itemOID":"SV.VISITDY","name":"VISITDY","label":"Planned Study Day of Visit","dataType":"integer"},{"itemOID":"SV.SVSTDTC","name":"SVSTDTC","label":"Start Date/Time of Visit","dataType":"date"},{"itemOID":"SV.SVENDTC","name":"SVENDTC","label":"End Date/Time of Visit","dataType":"date"}],"rows":[["CDISCPILOT01","SV","01-701-1015",1,"SCREENING 1",-7,"2013-12-26","2013-12-26"],["CDISCPILOT01","SV","01-701-1015",2,"SCREENING 2",-1,"2013-12-31","2013-12-31"],["CDISCPILOT01","SV","01-701-1015",3,"BASELINE",1,"2014-01-02","2014-01-02"],["CDISCPILOT01","SV","01-701-1015",3.5,"AMBUL ECG PLACEMENT",13,"2014-01-14","2014-01-14"],["CDISCPILOT01","SV","01-701-1015",4,"WEEK 2",14,"2014-01-16","2014-01-16"],["CDISCPILOT01","SV","01-701-1015",5,"WEEK 4",28,"2014-01-30","2014-01-30"],["CDISCPILOT01","SV","01-701-1015",6,"AMBUL ECG REMOVAL",30,"2014-02-01","2014-02-01"],["CDISCPILOT01","SV","01-701-1015",7,"WEEK 6",42,"2014-02-12","2014-02-12"],["CDISCPILOT01","SV","01-701-1015",8,"WEEK 8",56,"2014-03-05","2014-03-05"],["CDISCPILOT01","SV","01-701-1015",9,"WEEK 12",84,"2014-03-26","2014-03-26"],["CDISCPILOT01","SV","01-701-1015",9.1,"WEEK 14 (T)",98,"2014-04-09","2014-04-09"],["CDISCPILOT01","SV","01-701-1015",10,"WEEK 16",112,"2014-05-07","2014-05-07"],["CDISCPILOT01","SV","01-701-1015",11,"WEEK 20",140,"2014-05-21","2014-05-21"],["CDISCPILOT01","SV","01-701-1015",11.1,"WEEK 22 (T)",154,"2014-06-04","2014-06-04"],["CDISCPILOT01","SV","01-701-1015",12,"WEEK 24",168,"2014-06-18","2014-06-18"],["CDISCPILOT01","SV","01-701-1015",13,"WEEK 26",182,"2014-07-02","2014-07-02"],["CDISCPILOT01","SV","01-701-1023",1,"SCREENING 1",-7,"2012-07-22","2012-07-22"],["CDISCPILOT01","SV","01-701-1023",2,"SCREENING 2",-1,"2012-08-03","2012-08-03"],["CDISCPILOT01","SV","01-701-1023",3,"BASELINE",1,"2012-08-05","2012-08-05"],["CDISCPILOT01","SV","01-701-1023",3.5,"AMBUL ECG PLACEMENT",13,"2012-08-26","2012-08-26"],["CDISCPILOT01","SV","01-701-1023",4,"WEEK 2",14,"2012-08-27","2012-08-27"],["CDISCPILOT01","SV","01-701-1023",5,"WEEK 4",28,"2012-09-02","2012-09-02"],["CDISCPILOT01","SV","01-701-1023",5.1,"UNSCHEDULED 5.1",null,"2013-02-18","2013-02-18"],["CDISCPILOT01","SV","01-701-1023",101,"AE FOLLOW-UP",null,"2013-02-18","2013-02-18"],["CDISCPILOT01","SV","01-701-1023",201,"RETRIEVAL",168,"2013-02-18","2013-02-18"],["CDISCPILOT01","SV","01-701-1028",1,"SCREENING 1",-7,"2013-07-11","2013-07-11"],["CDISCPILOT01","SV","01-701-1028",2,"SCREENING 2",-1,"2013-07-17","2013-07-17"],["CDISCPILOT01","SV","01-701-1028",3,"BASELINE",1,"2013-07-19","2013-07-19"],["CDISCPILOT01","SV","01-701-1028",3.5,"AMBUL ECG PLACEMENT",13,"2013-07-31","2013-07-31"],["CDISCPILOT01","SV","01-701-1028",4,"WEEK 2",14,"2013-08-01","2013-08-01"],["CDISCPILOT01","SV","01-701-1028",5,"WEEK 4",28,"2013-08-14","2013-08-14"],["CDISCPILOT01","SV","01-701-1028",6,"AMBUL ECG REMOVAL",30,"2013-08-16","2013-08-16"],["CDISCPILOT01","SV","01-701-1028",7,"WEEK 6",42,"2013-08-29","2013-08-29"],["CDISCPILOT01","SV","01-701-1028",8,"WEEK 8",56,"2013-09-10","2013-09-10"],["CDISCPILOT01","SV","01-701-1028",8.1,"WEEK 10 (T)",70,"2013-09-24","2013-09-24"],["CDISCPILOT01","SV","01-701-1028",9,"WEEK 12",84,"2013-10-09","2013-10-09"],["CDISCPILOT01","SV","01-701-1028",9.1,"WEEK 14 (T)",98,"2013-10-23","2013-10-23"],["CDISCPILOT01","SV","01-701-1028",10,"WEEK 16",112,"2013-11-06","2013-11-06"],["CDISCPILOT01","SV","01-701-1028",10.1,"WEEK 18 (T)",126,"2013-11-20","2013-11-20"],["CDISCPILOT01","SV","01-701-1028",11,"WEEK 20",140,"2013-12-04","2013-12-04"],["CDISCPILOT01","SV","01-701-1028",11.1,"WEEK 22 (T)",154,"2013-12-18","2013-12-18"],["CDISCPILOT01","SV","01-701-1028",12,"WEEK 24",168,"2014-01-06","2014-01-06"],["CDISCPILOT01","SV","01-701-1028",13,"WEEK 26",182,"2014-01-14","2014-01-14"],["CDISCPILOT01","SV","01-701-1033",1,"SCREENING 1",-7,"2014-03-10","2014-03-10"],["CDISCPILOT01","SV","01-701-1033",2,"SCREENING 2",-1,"2014-03-16","2014-03-16"],["CDISCPILOT01","SV","01-701-1033",3,"BASELINE",1,"2014-03-18","2014-03-18"],["CDISCPILOT01","SV","01-701-1033",3.5,"AMBUL ECG PLACEMENT",13,"2014-03-31","2014-03-31"],["CDISCPILOT01","SV","01-701-1033",4,"WEEK 2",14,"2014-04-01","2014-04-01"],["CDISCPILOT01","SV","01-701-1033",5,"WEEK 4",28,"2014-04-14","2014-04-14"],["CDISCPILOT01","SV","01-701-1033",201,"RETRIEVAL",168,"2014-09-15","2014-09-15"],["CDISCPILOT01","SV","01-701-1034",1,"SCREENING 1",-7,"2014-06-24","2014-06-24"],["CDISCPILOT01","SV","01-701-1034",2,"SCREENING 2",-1,"2014-06-29","2014-06-29"],["CDISCPILOT01","SV","01-701-1034",3,"BASELINE",1,"2014-07-01","2014-07-01"],["CDISCPILOT01","SV","01-701-1034",4,"WEEK 2",14,"2014-07-15","2014-07-15"],["CDISCPILOT01","SV","01-701-1034",5,"WEEK 4",28,"2014-07-29","2014-07-29"],["CDISCPILOT01","SV","01-701-1034",6,"AMBUL ECG REMOVAL",30,"2014-07-31","2014-07-31"],["CDISCPILOT01","SV","01-701-1034",7,"WEEK 6",42,"2014-08-11","2014-08-11"],["CDISCPILOT01","SV","01-701-1034",8,"WEEK 8",56,"2014-08-26","2014-08-26"],["CDISCPILOT01","SV","01-701-1034",8.1,"WEEK 10 (T)",70,"2014-09-09","2014-09-09"],["CDISCPILOT01","SV","01-701-1034",9,"WEEK 12",84,"2014-09-25","2014-09-25"],["CDISCPILOT01","SV","01-701-1034",9.1,"WEEK 14 (T)",98,"2014-10-07","2014-10-07"],["CDISCPILOT01","SV","01-701-1034",10,"WEEK 16",112,"2014-10-21","2014-10-21"],["CDISCPILOT01","SV","01-701-1034",10.1,"WEEK 18 (T)",126,"2014-11-04","2014-11-04"],["CDISCPILOT01","SV","01-701-1034",11,"WEEK 20",140,"2014-11-18","2014-11-18"],["CDISCPILOT01","SV","01-701-1034",11.1,"WEEK 22 (T)",154,"2014-12-02","2014-12-02"],["CDISCPILOT01","SV","01-701-1034",12,"WEEK 24",168,"2014-12-17","2014-12-17"],["CDISCPILOT01","SV","01-701-1034",13,"WEEK 26",182,"2014-12-30","2014-12-30"],["CDISCPILOT01","SV","01-701-1047",1,"SCREENING 1",-7,"2013-01-22","2013-01-22"],["CDISCPILOT01","SV","01-701-1047",2,"SCREENING 2",-1,"2013-02-10","2013-02-10"],["CDISCPILOT01","SV","01-701-1047",3,"BASELINE",1,"2013-02-12","2013-02-12"],["CDISCPILOT01","SV","01-701-1047",3.5,"AMBUL ECG PLACEMENT",13,"2013-02-24","2013-02-24"],["CDISCPILOT01","SV","01-701-1047",4,"WEEK 2",14,"2013-02-25","2013-02-25"],["CDISCPILOT01","SV","01-701-1047",5,"WEEK 4",28,"2013-03-10","2013-03-10"],["CDISCPILOT01","SV","01-701-1047",6,"AMBUL ECG REMOVAL",30,"2013-03-29","2013-03-29"],["CDISCPILOT01","SV","01-701-1047",6.1,"UNSCHEDULED 6.1",null,"2013-04-07","2013-04-07"],["CDISCPILOT01","SV","01-701-1047",201,"RETRIEVAL",168,"2013-07-28","2013-07-28"],["CDISCPILOT01","SV","01-701-1057",1,"SCREENING 1",-7,"2013-12-20","2013-12-20"],["CDISCPILOT01","SV","01-701-1097",1,"SCREENING 1",-7,"2013-12-23","2013-12-23"],["CDISCPILOT01","SV","01-701-1097",2,"SCREENING 2",-1,"2013-12-30","2013-12-30"],["CDISCPILOT01","SV","01-701-1097",3,"BASELINE",1,"2014-01-01","2014-01-01"],["CDISCPILOT01","SV","01-701-1097",3.5,"AMBUL ECG PLACEMENT",13,"2014-01-14","2014-01-14"],["CDISCPILOT01","SV","01-701-1097",4,"WEEK 2",14,"2014-01-15","2014-01-15"],["CDISCPILOT01","SV","01-701-1097",5,"WEEK 4",28,"2014-01-29","2014-01-29"],["CDISCPILOT01","SV","01-701-1097",6,"AMBUL ECG REMOVAL",30,"2014-02-04","2014-02-04"],["CDISCPILOT01","SV","01-701-1097",7,"WEEK 6",42,"2014-02-11","2014-02-11"],["CDISCPILOT01","SV","01-701-1097",8,"WEEK 8",56,"2014-02-26","2014-02-26"],["CDISCPILOT01","SV","01-701-1097",9,"WEEK 12",84,"2014-03-26","2014-03-26"],["CDISCPILOT01","SV","01-701-1097",9.1,"WEEK 14 (T)",98,"2014-04-09","2014-04-09"],["CDISCPILOT01","SV","01-701-1097",10,"WEEK 16",112,"2014-04-23","2014-04-23"],["CDISCPILOT01","SV","01-701-1097",10.1,"WEEK 18 (T)",126,"2014-05-07","2014-05-07"],["CDISCPILOT01","SV","01-701-1097",11,"WEEK 20",140,"2014-05-21","2014-05-21"],["CDISCPILOT01","SV","01-701-1097",11.1,"WEEK 22 (T)",154,"2014-06-04","2014-06-04"],["CDISCPILOT01","SV","01-701-1097",12,"WEEK 24",168,"2014-06-18","2014-06-18"],["CDISCPILOT01","SV","01-701-1097",13,"WEEK 26",182,"2014-07-09","2014-07-09"],["CDISCPILOT01","SV","01-701-1111",1,"SCREENING 1",-7,"2012-08-25","2012-08-25"],["CDISCPILOT01","SV","01-701-1111",2,"SCREENING 2",-1,"2012-09-05","2012-09-05"],["CDISCPILOT01","SV","01-701-1111",3,"BASELINE",1,"2012-09-07","2012-09-07"],["CDISCPILOT01","SV","01-701-1111",4,"WEEK 2",14,"2012-09-17","2012-09-17"],["CDISCPILOT01","SV","01-701-1111",101,"AE FOLLOW-UP",null,"2012-09-29","2012-09-29"],["CDISCPILOT01","SV","01-701-1111",201,"RETRIEVAL",168,"2013-02-22","2013-02-22"],["CDISCPILOT01","SV","01-701-1115",1,"SCREENING 1",-7,"2012-11-23","2012-11-23"],["CDISCPILOT01","SV","01-701-1115",2,"SCREENING 2",-1,"2012-11-28","2012-11-28"],["CDISCPILOT01","SV","01-701-1115",3,"BASELINE",1,"2012-11-30","2012-11-30"],["CDISCPILOT01","SV","01-701-1115",3.5,"AMBUL ECG PLACEMENT",13,"2012-12-12","2012-12-12"],["CDISCPILOT01","SV","01-701-1115",4,"WEEK 2",14,"2012-12-13","2012-12-13"],["CDISCPILOT01","SV","01-701-1115",5,"WEEK 4",28,"2012-12-26","2012-12-26"],["CDISCPILOT01","SV","01-701-1115",5.1,"UNSCHEDULED 5.1",null,"2012-12-28","2012-12-28"],["CDISCPILOT01","SV","01-701-1115",6,"AMBUL ECG REMOVAL",30,"2012-12-28","2012-12-28"],["CDISCPILOT01","SV","01-701-1115",7,"WEEK 6",42,"2013-01-10","2013-01-10"],["CDISCPILOT01","SV","01-701-1115",8,"WEEK 8",56,"2013-01-23","2013-01-23"],["CDISCPILOT01","SV","01-701-1115",101,"AE FOLLOW-UP",null,"2013-02-14","2013-02-14"],["CDISCPILOT01","SV","01-701-1115",201,"RETRIEVAL",168,"2013-05-20","2013-05-20"],["CDISCPILOT01","SV","01-701-1118",1,"SCREENING 1",-7,"2014-02-27","2014-02-27"],["CDISCPILOT01","SV","01-701-1118",2,"SCREENING 2",-1,"2014-03-10","2014-03-10"],["CDISCPILOT01","SV","01-701-1118",3,"BASELINE",1,"2014-03-12","2014-03-12"],["CDISCPILOT01","SV","01-701-1118",3.5,"AMBUL ECG PLACEMENT",13,"2014-03-25","2014-03-25"],["CDISCPILOT01","SV","01-701-1118",4,"WEEK 2",14,"2014-03-26","2014-03-26"],["CDISCPILOT01","SV","01-701-1118",5,"WEEK 4",28,"2014-04-09","2014-04-09"],["CDISCPILOT01","SV","01-701-1118",6,"AMBUL ECG REMOVAL",30,"2014-04-11","2014-04-11"],["CDISCPILOT01","SV","01-701-1118",7,"WEEK 6",42,"2014-04-23","2014-04-23"],["CDISCPILOT01","SV","01-701-1118",8,"WEEK 8",56,"2014-05-08","2014-05-08"],["CDISCPILOT01","SV","01-701-1118",8.1,"WEEK 10 (T)",70,"2014-05-21","2014-05-21"],["CDISCPILOT01","SV","01-701-1118",9,"WEEK 12",84,"2014-06-05","2014-06-05"],["CDISCPILOT01","SV","01-701-1118",9.1,"WEEK 14 (T)",98,"2014-06-18","2014-06-18"],["CDISCPILOT01","SV","01-701-1118",10,"WEEK 16",112,"2014-07-02","2014-07-02"],["CDISCPILOT01","SV","01-701-1118",10.1,"WEEK 18 (T)",126,"2014-07-16","2014-07-16"],["CDISCPILOT01","SV","01-701-1118",11,"WEEK 20",140,"2014-07-30","2014-07-30"],["CDISCPILOT01","SV","01-701-1118",11.1,"WEEK 22 (T)",154,"2014-07-13","2014-07-13"],["CDISCPILOT01","SV","01-701-1118",12,"WEEK 24",168,"2014-08-27","2014-08-27"],["CDISCPILOT01","SV","01-701-1118",13,"WEEK 26",182,"2014-09-09","2014-09-09"],["CDISCPILOT01","SV","01-701-1130",1,"SCREENING 1",-7,"2014-02-09","2014-02-09"],["CDISCPILOT01","SV","01-701-1130",2,"SCREENING 2",-1,"2014-02-13","2014-02-13"],["CDISCPILOT01","SV","01-701-1130",3,"BASELINE",1,"2014-02-15","2014-02-15"],["CDISCPILOT01","SV","01-701-1130",3.5,"AMBUL ECG PLACEMENT",13,"2014-02-28","2014-02-28"],["CDISCPILOT01","SV","01-701-1130",4,"WEEK 2",14,"2014-03-01","2014-03-01"],["CDISCPILOT01","SV","01-701-1130",5,"WEEK 4",28,"2014-03-15","2014-03-15"],["CDISCPILOT01","SV","01-701-1130",6,"AMBUL ECG REMOVAL",30,"2014-03-17","2014-03-17"],["CDISCPILOT01","SV","01-701-1130",7,"WEEK 6",42,"2014-03-29","2014-03-29"],["CDISCPILOT01","SV","01-701-1130",8,"WEEK 8",56,"2014-04-12","2014-04-12"],["CDISCPILOT01","SV","01-701-1130",8.1,"WEEK 10 (T)",70,"2014-04-26","2014-04-26"],["CDISCPILOT01","SV","01-701-1130",9,"WEEK 12",84,"2014-05-16","2014-05-16"],["CDISCPILOT01","SV","01-701-1130",9.1,"WEEK 14 (T)",98,"2014-05-24","2014-05-24"],["CDISCPILOT01","SV","01-701-1130",10,"WEEK 16",112,"2014-06-07","2014-06-07"],["CDISCPILOT01","SV","01-701-1130",10.1,"WEEK 18 (T)",126,"2014-06-21","2014-06-21"],["CDISCPILOT01","SV","01-701-1130",11,"WEEK 20",140,"2014-07-02","2014-07-02"],["CDISCPILOT01","SV","01-701-1130",11.1,"WEEK 22 (T)",154,"2014-07-19","2014-07-19"],["CDISCPILOT01","SV","01-701-1130",12,"WEEK 24",168,"2014-08-02","2014-08-02"],["CDISCPILOT01","SV","01-701-1130",13,"WEEK 26",182,"2014-08-16","2014-08-16"],["CDISCPILOT01","SV","01-701-1133",1,"SCREENING 1",-7,"2012-10-23","2012-10-23"],["CDISCPILOT01","SV","01-701-1133",2,"SCREENING 2",-1,"2012-10-26","2012-10-26"],["CDISCPILOT01","SV","01-701-1133",3,"BASELINE",1,"2012-10-28","2012-10-28"],["CDISCPILOT01","SV","01-701-1133",3.5,"AMBUL ECG PLACEMENT",13,"2012-11-11","2012-11-11"],["CDISCPILOT01","SV","01-701-1133",4,"WEEK 2",14,"2012-11-12","2012-11-12"],["CDISCPILOT01","SV","01-701-1133",5,"WEEK 4",28,"2012-11-26","2012-11-26"],["CDISCPILOT01","SV","01-701-1133",6,"AMBUL ECG REMOVAL",30,"2012-11-28","2012-11-28"],["CDISCPILOT01","SV","01-701-1133",7,"WEEK 6",42,"2012-12-11","2012-12-11"],["CDISCPILOT01","SV","01-701-1133",8,"WEEK 8",56,"2012-12-24","2012-12-24"],["CDISCPILOT01","SV","01-701-1133",8.1,"WEEK 10 (T)",70,"2013-01-07","2013-01-07"],["CDISCPILOT01","SV","01-701-1133",9,"WEEK 12",84,"2013-01-22","2013-01-22"],["CDISCPILOT01","SV","01-701-1133",9.1,"WEEK 14 (T)",98,"2013-02-04","2013-02-04"],["CDISCPILOT01","SV","01-701-1133",10,"WEEK 16",112,"2013-02-18","2013-02-18"],["CDISCPILOT01","SV","01-701-1133",10.1,"WEEK 18 (T)",126,"2013-03-04","2013-03-04"],["CDISCPILOT01","SV","01-701-1133",11,"WEEK 20",140,"2013-03-18","2013-03-18"],["CDISCPILOT01","SV","01-701-1133",11.1,"WEEK 22 (T)",154,"2013-04-01","2013-04-01"],["CDISCPILOT01","SV","01-701-1133",12,"WEEK 24",168,"2013-04-18","2013-04-18"],["CDISCPILOT01","SV","01-701-1133",13,"WEEK 26",182,"2013-04-29","2013-04-29"],["CDISCPILOT01","SV","01-701-1145",1,"SCREENING 1",-7,"2013-09-05","2013-09-05"],["CDISCPILOT01","SV","01-701-1146",1,"SCREENING 1",-7,"2013-05-07","2013-05-07"],["CDISCPILOT01","SV","01-701-1146",2,"SCREENING 2",-1,"2013-05-18","2013-05-18"],["CDISCPILOT01","SV","01-701-1146",3,"BASELINE",1,"2013-05-20","2013-05-20"],["CDISCPILOT01","SV","01-701-1146",3.5,"AMBUL ECG PLACEMENT",13,"2013-06-02","2013-06-02"],["CDISCPILOT01","SV","01-701-1146",4,"WEEK 2",14,"2013-06-03","2013-06-03"],["CDISCPILOT01","SV","01-701-1146",5,"WEEK 4",28,"2013-06-16","2013-06-16"],["CDISCPILOT01","SV","01-701-1146",6,"AMBUL ECG REMOVAL",30,"2013-06-18","2013-06-18"],["CDISCPILOT01","SV","01-701-1146",7,"WEEK 6",42,"2013-06-30","2013-06-30"],["CDISCPILOT01","SV","01-701-1146",101,"AE FOLLOW-UP",null,"2013-07-15","2013-07-15"],["CDISCPILOT01","SV","01-701-1148",1,"SCREENING 1",-7,"2013-08-14","2013-08-14"],["CDISCPILOT01","SV","01-701-1148",2,"SCREENING 2",-1,"2013-08-21","2013-08-21"],["CDISCPILOT01","SV","01-701-1148",3,"BASELINE",1,"2013-08-23","2013-08-23"],["CDISCPILOT01","SV","01-701-1148",3.5,"AMBUL ECG PLACEMENT",13,"2013-09-04","2013-09-04"],["CDISCPILOT01","SV","01-701-1148",4,"WEEK 2",14,"2013-09-05","2013-09-05"],["CDISCPILOT01","SV","01-701-1148",5,"WEEK 4",28,"2013-09-19","2013-09-19"],["CDISCPILOT01","SV","01-701-1148",6,"AMBUL ECG REMOVAL",30,"2013-09-21","2013-09-21"],["CDISCPILOT01","SV","01-701-1148",7,"WEEK 6",42,"2013-10-03","2013-10-03"],["CDISCPILOT01","SV","01-701-1148",8,"WEEK 8",56,"2013-10-18","2013-10-18"],["CDISCPILOT01","SV","01-701-1148",8.1,"WEEK 10 (T)",70,"2013-11-01","2013-11-01"],["CDISCPILOT01","SV","01-701-1148",9,"WEEK 12",84,"2013-11-17","2013-11-17"],["CDISCPILOT01","SV","01-701-1148",9.1,"WEEK 14 (T)",98,"2013-11-30","2013-11-30"],["CDISCPILOT01","SV","01-701-1148",10,"WEEK 16",112,"2013-12-13","2013-12-13"],["CDISCPILOT01","SV","01-701-1148",10.1,"WEEK 18 (T)",126,"2013-12-27","2013-12-27"],["CDISCPILOT01","SV","01-701-1148",11,"WEEK 20",140,"2014-01-10","2014-01-10"],["CDISCPILOT01","SV","01-701-1148",11.1,"WEEK 22 (T)",154,"2014-01-24","2014-01-24"],["CDISCPILOT01","SV","01-701-1148",12,"WEEK 24",168,"2014-02-08","2014-02-08"],["CDISCPILOT01","SV","01-701-1148",13,"WEEK 26",182,"2014-02-20","2014-02-20"],["CDISCPILOT01","SV","01-701-1153",1,"SCREENING 1",-7,"2013-09-06","2013-09-06"],["CDISCPILOT01","SV","01-701-1153",2,"SCREENING 2",-1,"2013-09-18","2013-09-18"],["CDISCPILOT01","SV","01-701-1153",3,"BASELINE",1,"2013-09-23","2013-09-23"],["CDISCPILOT01","SV","01-701-1153",3.5,"AMBUL ECG PLACEMENT",13,"2013-10-07","2013-10-07"],["CDISCPILOT01","SV","01-701-1153",4,"WEEK 2",14,"2013-10-08","2013-10-08"],["CDISCPILOT01","SV","01-701-1153",5,"WEEK 4",28,"2013-10-19","2013-10-19"],["CDISCPILOT01","SV","01-701-1153",5.1,"UNSCHEDULED 5.1",null,"2013-10-19","2013-10-19"],["CDISCPILOT01","SV","01-701-1153",6,"AMBUL ECG REMOVAL",30,"2013-10-28","2013-10-28"],["CDISCPILOT01","SV","01-701-1153",7,"WEEK 6",42,"2013-11-04","2013-11-04"],["CDISCPILOT01","SV","01-701-1153",8,"WEEK 8",56,"2013-11-18","2013-11-18"],["CDISCPILOT01","SV","01-701-1153",8.1,"WEEK 10 (T)",70,"2013-12-02","2013-12-02"],["CDISCPILOT01","SV","01-701-1153",9,"WEEK 12",84,"2013-12-16","2013-12-16"],["CDISCPILOT01","SV","01-701-1153",9.1,"WEEK 14 (T)",98,"2013-12-30","2013-12-30"],["CDISCPILOT01","SV","01-701-1153",9.2,"UNSCHEDULED 9.2",null,"2014-01-08","2014-01-08"],["CDISCPILOT01","SV","01-701-1153",9.3,"UNSCHEDULED 9.3",null,"2013-12-30","2013-12-30"],["CDISCPILOT01","SV","01-701-1153",10,"WEEK 16",112,"2014-01-08","2014-01-08"],["CDISCPILOT01","SV","01-701-1153",11,"WEEK 20",140,"2014-02-11","2014-02-11"],["CDISCPILOT01","SV","01-701-1153",11.1,"WEEK 22 (T)",154,"2014-02-25","2014-02-25"],["CDISCPILOT01","SV","01-701-1153",12,"WEEK 24",168,"2014-03-11","2014-03-11"],["CDISCPILOT01","SV","01-701-1153",13,"WEEK 26",182,"2014-04-01","2014-04-01"],["CDISCPILOT01","SV","01-701-1162",1,"SCREENING 1",-7,"2013-04-18","2013-04-18"],["CDISCPILOT01","SV","01-701-1176",1,"SCREENING 1",-7,"2012-09-30","2012-09-30"],["CDISCPILOT01","SV","01-701-1180",1,"SCREENING 1",-7,"2013-01-28","2013-01-28"],["CDISCPILOT01","SV","01-701-1180",2,"SCREENING 2",-1,"2013-02-10","2013-02-10"],["CDISCPILOT01","SV","01-701-1180",3,"BASELINE",1,"2013-02-12","2013-02-12"],["CDISCPILOT01","SV","01-701-1180",3.5,"AMBUL ECG PLACEMENT",13,"2013-02-24","2013-02-24"],["CDISCPILOT01","SV","01-701-1180",4,"WEEK 2",14,"2013-02-25","2013-02-25"],["CDISCPILOT01","SV","01-701-1180",5,"WEEK 4",28,"2013-03-11","2013-03-11"],["CDISCPILOT01","SV","01-701-1180",6,"AMBUL ECG REMOVAL",30,"2013-03-13","2013-03-13"],["CDISCPILOT01","SV","01-701-1180",7,"WEEK 6",42,"2013-03-23","2013-03-23"],["CDISCPILOT01","SV","01-701-1180",101,"AE FOLLOW-UP",null,"2013-04-07","2013-04-07"],["CDISCPILOT01","SV","01-701-1181",1,"SCREENING 1",-7,"2013-11-26","2013-11-26"],["CDISCPILOT01","SV","01-701-1181",2,"SCREENING 2",-1,"2013-12-03","2013-12-03"],["CDISCPILOT01","SV","01-701-1181",3,"BASELINE",1,"2013-12-05","2013-12-05"],["CDISCPILOT01","SV","01-701-1181",4,"WEEK 2",14,"2013-12-12","2013-12-12"],["CDISCPILOT01","SV","01-701-1181",101,"AE FOLLOW-UP",null,"2013-12-20","2013-12-20"],["CDISCPILOT01","SV","01-701-1181",201,"RETRIEVAL",168,"2014-05-23","2014-05-23"],["CDISCPILOT01","SV","01-701-1188",1,"SCREENING 1",-7,"2013-02-03","2013-02-03"],["CDISCPILOT01","SV","01-701-1188",2,"SCREENING 2",-1,"2013-02-10","2013-02-10"],["CDISCPILOT01","SV","01-701-1188",3,"BASELINE",1,"2013-02-15","2013-02-15"],["CDISCPILOT01","SV","01-701-1188",3.5,"AMBUL ECG PLACEMENT",13,"2013-03-01","2013-03-01"],["CDISCPILOT01","SV","01-701-1188",4,"WEEK 2",14,"2013-03-02","2013-03-02"],["CDISCPILOT01","SV","01-701-1188",5,"WEEK 4",28,"2013-03-16","2013-03-16"],["CDISCPILOT01","SV","01-701-1188",6,"AMBUL ECG REMOVAL",30,"2013-03-18","2013-03-18"],["CDISCPILOT01","SV","01-701-1188",7,"WEEK 6",42,"2013-03-25","2013-03-25"],["CDISCPILOT01","SV","01-701-1188",101,"AE FOLLOW-UP",null,"2013-06-01","2013-06-01"],["CDISCPILOT01","SV","01-701-1188",201,"RETRIEVAL",168,"2013-08-04","2013-08-04"],["CDISCPILOT01","SV","01-701-1192",1,"SCREENING 1",-7,"2012-07-08","2012-07-08"],["CDISCPILOT01","SV","01-701-1192",2,"SCREENING 2",-1,"2012-07-20","2012-07-20"],["CDISCPILOT01","SV","01-701-1192",3,"BASELINE",1,"2012-07-22","2012-07-22"],["CDISCPILOT01","SV","01-701-1192",3.5,"AMBUL ECG PLACEMENT",13,"2012-08-04","2012-08-04"],["CDISCPILOT01","SV","01-701-1192",4,"WEEK 2",14,"2012-08-07","2012-08-07"],["CDISCPILOT01","SV","01-701-1192",5,"WEEK 4",28,"2012-08-21","2012-08-21"],["CDISCPILOT01","SV","01-701-1192",5.1,"UNSCHEDULED 5.1",null,"2012-08-21","2012-08-21"],["CDISCPILOT01","SV","01-701-1192",6,"AMBUL ECG REMOVAL",30,"2012-08-23","2012-08-23"],["CDISCPILOT01","SV","01-701-1192",7,"WEEK 6",42,"2012-09-04","2012-09-04"],["CDISCPILOT01","SV","01-701-1192",8,"WEEK 8",56,"2012-09-23","2012-09-23"],["CDISCPILOT01","SV","01-701-1192",8.1,"WEEK 10 (T)",70,"2012-09-30","2012-09-30"],["CDISCPILOT01","SV","01-701-1192",9,"WEEK 12",84,"2012-10-14","2012-10-14"],["CDISCPILOT01","SV","01-701-1192",9.1,"WEEK 14 (T)",98,"2012-10-29","2012-10-29"],["CDISCPILOT01","SV","01-701-1192",10,"WEEK 16",112,"2012-11-15","2012-11-15"],["CDISCPILOT01","SV","01-701-1192",10.1,"WEEK 18 (T)",126,"2012-11-26","2012-11-26"],["CDISCPILOT01","SV","01-701-1192",11,"WEEK 20",140,"2012-12-13","2012-12-13"],["CDISCPILOT01","SV","01-701-1192",11.1,"WEEK 22 (T)",154,"2012-12-27","2012-12-27"],["CDISCPILOT01","SV","01-701-1192",12,"WEEK 24",168,"2013-01-11","2013-01-11"],["CDISCPILOT01","SV","01-701-1192",13,"WEEK 26",182,"2013-01-20","2013-01-20"],["CDISCPILOT01","SV","01-701-1203",1,"SCREENING 1",-7,"2013-01-25","2013-01-25"],["CDISCPILOT01","SV","01-701-1203",2,"SCREENING 2",-1,"2013-02-01","2013-02-01"],["CDISCPILOT01","SV","01-701-1203",3,"BASELINE",1,"2013-02-02","2013-02-02"],["CDISCPILOT01","SV","01-701-1203",4,"WEEK 2",14,"2013-02-23","2013-02-23"],["CDISCPILOT01","SV","01-701-1203",5,"WEEK 4",28,"2013-03-02","2013-03-02"],["CDISCPILOT01","SV","01-701-1203",6,"AMBUL ECG REMOVAL",30,"2013-03-04","2013-03-04"],["CDISCPILOT01","SV","01-701-1203",7,"WEEK 6",42,"2013-03-16","2013-03-16"],["CDISCPILOT01","SV","01-701-1203",8,"WEEK 8",56,"2013-03-30","2013-03-30"],["CDISCPILOT01","SV","01-701-1203",8.1,"WEEK 10 (T)",70,"2013-04-13","2013-04-13"],["CDISCPILOT01","SV","01-701-1203",9,"WEEK 12",84,"2013-05-09","2013-05-09"],["CDISCPILOT01","SV","01-701-1203",9.1,"WEEK 14 (T)",98,"2013-05-11","2013-05-11"],["CDISCPILOT01","SV","01-701-1203",10,"WEEK 16",112,"2013-05-25","2013-05-25"],["CDISCPILOT01","SV","01-701-1203",10.1,"WEEK 18 (T)",126,"2013-06-08","2013-06-08"],["CDISCPILOT01","SV","01-701-1203",11,"WEEK 20",140,"2013-06-22","2013-06-22"],["CDISCPILOT01","SV","01-701-1203",11.1,"WEEK 22 (T)",154,"2013-07-07","2013-07-07"],["CDISCPILOT01","SV","01-701-1203",12,"WEEK 24",168,"2013-07-22","2013-07-22"],["CDISCPILOT01","SV","01-701-1203",13,"WEEK 26",182,"2013-08-03","2013-08-03"],["CDISCPILOT01","SV","01-701-1211",1,"SCREENING 1",-7,"2012-10-30","2012-10-30"],["CDISCPILOT01","SV","01-701-1211",2,"SCREENING 2",-1,"2012-11-14","2012-11-14"],["CDISCPILOT01","SV","01-701-1211",3,"BASELINE",1,"2012-11-15","2012-11-15"],["CDISCPILOT01","SV","01-701-1211",3.5,"AMBUL ECG PLACEMENT",13,"2012-11-27","2012-11-27"],["CDISCPILOT01","SV","01-701-1211",4,"WEEK 2",14,"2012-11-28","2012-11-28"],["CDISCPILOT01","SV","01-701-1211",5,"WEEK 4",28,"2012-12-11","2012-12-11"],["CDISCPILOT01","SV","01-701-1211",6,"AMBUL ECG REMOVAL",30,"2012-12-13","2012-12-13"],["CDISCPILOT01","SV","01-701-1211",7,"WEEK 6",42,"2012-12-25","2012-12-25"],["CDISCPILOT01","SV","01-701-1211",8,"WEEK 8",56,"2013-01-08","2013-01-08"],["CDISCPILOT01","SV","01-701-1211",9,"WEEK 12",84,"2013-01-14","2013-01-14"],["CDISCPILOT01","SV","01-701-1234",1,"SCREENING 1",-7,"2013-03-20","2013-03-20"],["CDISCPILOT01","SV","01-701-1234",2,"SCREENING 2",-1,"2013-03-28","2013-03-28"],["CDISCPILOT01","SV","01-701-1234",3,"BASELINE",1,"2013-03-30","2013-03-30"],["CDISCPILOT01","SV","01-701-1234",3.5,"AMBUL ECG PLACEMENT",13,"2013-04-20","2013-04-20"],["CDISCPILOT01","SV","01-701-1234",4,"WEEK 2",14,"2013-04-21","2013-04-21"],["CDISCPILOT01","SV","01-701-1234",5,"WEEK 4",28,"2013-04-28","2013-04-28"],["CDISCPILOT01","SV","01-701-1234",6,"AMBUL ECG REMOVAL",30,"2013-04-30","2013-04-30"],["CDISCPILOT01","SV","01-701-1234",7,"WEEK 6",42,"2013-05-08","2013-05-08"],["CDISCPILOT01","SV","01-701-1234",8,"WEEK 8",56,"2013-05-26","2013-05-26"],["CDISCPILOT01","SV","01-701-1234",8.1,"WEEK 10 (T)",70,"2013-06-09","2013-06-09"],["CDISCPILOT01","SV","01-701-1234",9,"WEEK 12",84,"2013-07-07","2013-07-07"],["CDISCPILOT01","SV","01-701-1234",10,"WEEK 16",112,"2013-07-27","2013-07-27"],["CDISCPILOT01","SV","01-701-1234",10.1,"WEEK 18 (T)",126,"2013-08-10","2013-08-10"],["CDISCPILOT01","SV","01-701-1234",11,"WEEK 20",140,"2013-08-18","2013-08-18"],["CDISCPILOT01","SV","01-701-1234",11.1,"WEEK 22 (T)",154,"2013-09-01","2013-09-01"],["CDISCPILOT01","SV","01-701-1234",12,"WEEK 24",168,"2013-09-10","2013-09-10"],["CDISCPILOT01","SV","01-701-1234",13,"WEEK 26",182,"2013-09-22","2013-09-22"],["CDISCPILOT01","SV","01-701-1239",1,"SCREENING 1",-7,"2013-12-28","2013-12-28"],["CDISCPILOT01","SV","01-701-1239",1.1,"UNSCHEDULED 1.1",null,"2014-01-06","2014-01-06"],["CDISCPILOT01","SV","01-701-1239",2,"SCREENING 2",-1,"2014-01-09","2014-01-09"],["CDISCPILOT01","SV","01-701-1239",3,"BASELINE",1,"2014-01-11","2014-01-11"],["CDISCPILOT01","SV","01-701-1239",3.5,"AMBUL ECG PLACEMENT",13,"2014-01-24","2014-01-24"],["CDISCPILOT01","SV","01-701-1239",4,"WEEK 2",14,"2014-01-25","2014-01-25"],["CDISCPILOT01","SV","01-701-1239",5,"WEEK 4",28,"2014-02-08","2014-02-08"],["CDISCPILOT01","SV","01-701-1239",6,"AMBUL ECG REMOVAL",30,"2014-02-10","2014-02-10"],["CDISCPILOT01","SV","01-701-1239",7,"WEEK 6",42,"2014-02-19","2014-02-19"],["CDISCPILOT01","SV","01-701-1239",8,"WEEK 8",56,"2014-03-06","2014-03-06"],["CDISCPILOT01","SV","01-701-1239",8.1,"WEEK 10 (T)",70,"2014-03-19","2014-03-19"],["CDISCPILOT01","SV","01-701-1239",9,"WEEK 12",84,"2014-04-02","2014-04-02"],["CDISCPILOT01","SV","01-701-1239",9.1,"WEEK 14 (T)",98,"2014-04-16","2014-04-16"],["CDISCPILOT01","SV","01-701-1239",10,"WEEK 16",112,"2014-05-02","2014-05-02"],["CDISCPILOT01","SV","01-701-1239",10.1,"WEEK 18 (T)",126,"2014-05-14","2014-05-14"],["CDISCPILOT01","SV","01-701-1239",11,"WEEK 20",140,"2014-05-28","2014-05-28"],["CDISCPILOT01","SV","01-701-1239",11.1,"WEEK 22 (T)",154,"2014-06-11","2014-06-11"],["CDISCPILOT01","SV","01-701-1239",12,"WEEK 24",168,"2014-06-27","2014-06-27"],["CDISCPILOT01","SV","01-701-1239",13,"WEEK 26",182,"2014-07-11","2014-07-11"],["CDISCPILOT01","SV","01-701-1240",1,"SCREENING 1",-7,"2013-09-22","2013-09-22"],["CDISCPILOT01","SV","01-701-1275",1,"SCREENING 1",-7,"2014-01-25","2014-01-25"],["CDISCPILOT01","SV","01-701-1275",2,"SCREENING 2",-1,"2014-02-05","2014-02-05"],["CDISCPILOT01","SV","01-701-1275",3,"BASELINE",1,"2014-02-07","2014-02-07"],["CDISCPILOT01","SV","01-701-1275",3.5,"AMBUL ECG PLACEMENT",13,"2014-02-21","2014-02-21"],["CDISCPILOT01","SV","01-701-1275",4,"WEEK 2",14,"2014-02-22","2014-02-22"],["CDISCPILOT01","SV","01-701-1275",5,"WEEK 4",28,"2014-03-07","2014-03-07"],["CDISCPILOT01","SV","01-701-1275",6,"AMBUL ECG REMOVAL",30,"2014-03-08","2014-03-08"],["CDISCPILOT01","SV","01-701-1275",7,"WEEK 6",42,"2014-03-22","2014-03-22"],["CDISCPILOT01","SV","01-701-1275",8,"WEEK 8",56,"2014-04-05","2014-04-05"],["CDISCPILOT01","SV","01-701-1275",8.1,"WEEK 10 (T)",70,"2014-04-19","2014-04-19"],["CDISCPILOT01","SV","01-701-1275",9,"WEEK 12",84,"2014-05-03","2014-05-03"],["CDISCPILOT01","SV","01-701-1275",9.1,"WEEK 14 (T)",98,"2014-05-17","2014-05-17"],["CDISCPILOT01","SV","01-701-1275",10,"WEEK 16",112,"2014-06-14","2014-06-14"],["CDISCPILOT01","SV","01-701-1287",1,"SCREENING 1",-7,"2014-01-17","2014-01-17"],["CDISCPILOT01","SV","01-701-1287",2,"SCREENING 2",-1,"2014-01-23","2014-01-23"],["CDISCPILOT01","SV","01-701-1287",3,"BASELINE",1,"2014-01-25","2014-01-25"],["CDISCPILOT01","SV","01-701-1287",4,"WEEK 2",14,"2014-02-11","2014-02-11"],["CDISCPILOT01","SV","01-701-1287",5,"WEEK 4",28,"2014-02-20","2014-02-20"],["CDISCPILOT01","SV","01-701-1287",6,"AMBUL ECG REMOVAL",30,"2014-02-22","2014-02-22"],["CDISCPILOT01","SV","01-701-1287",7,"WEEK 6",42,"2014-03-06","2014-03-06"],["CDISCPILOT01","SV","01-701-1287",8,"WEEK 8",56,"2014-03-21","2014-03-21"],["CDISCPILOT01","SV","01-701-1287",8.1,"WEEK 10 (T)",70,"2014-04-03","2014-04-03"],["CDISCPILOT01","SV","01-701-1287",9,"WEEK 12",84,"2014-04-17","2014-04-17"],["CDISCPILOT01","SV","01-701-1287",9.1,"WEEK 14 (T)",98,"2014-05-01","2014-05-01"],["CDISCPILOT01","SV","01-701-1287",10,"WEEK 16",112,"2014-05-15","2014-05-15"],["CDISCPILOT01","SV","01-701-1287",10.1,"WEEK 18 (T)",126,"2014-05-29","2014-05-29"],["CDISCPILOT01","SV","01-701-1287",11,"WEEK 20",140,"2014-06-12","2014-06-12"],["CDISCPILOT01","SV","01-701-1287",11.1,"WEEK 22 (T)",154,"2014-06-26","2014-06-26"],["CDISCPILOT01","SV","01-701-1287",12,"WEEK 24",168,"2014-07-12","2014-07-12"],["CDISCPILOT01","SV","01-701-1287",13,"WEEK 26",182,"2014-07-26","2014-07-26"],["CDISCPILOT01","SV","01-701-1294",1,"SCREENING 1",-7,"2013-03-17","2013-03-17"],["CDISCPILOT01","SV","01-701-1294",2,"SCREENING 2",-1,"2013-03-22","2013-03-22"],["CDISCPILOT01","SV","01-701-1294",3,"BASELINE",1,"2013-03-24","2013-03-24"],["CDISCPILOT01","SV","01-701-1294",3.5,"AMBUL ECG PLACEMENT",13,"2013-04-09","2013-04-09"],["CDISCPILOT01","SV","01-701-1294",4,"WEEK 2",14,"2013-04-10","2013-04-10"],["CDISCPILOT01","SV","01-701-1294",5,"WEEK 4",28,"2013-04-24","2013-04-24"],["CDISCPILOT01","SV","01-701-1294",6,"AMBUL ECG REMOVAL",30,"2013-04-26","2013-04-26"],["CDISCPILOT01","SV","01-701-1294",7,"WEEK 6",42,"2013-05-08","2013-05-08"],["CDISCPILOT01","SV","01-701-1294",8,"WEEK 8",56,"2013-05-22","2013-05-22"],["CDISCPILOT01","SV","01-701-1294",8.1,"WEEK 10 (T)",70,"2013-06-05","2013-06-05"],["CDISCPILOT01","SV","01-701-1294",9,"WEEK 12",84,"2013-06-14","2013-06-14"],["CDISCPILOT01","SV","01-701-1294",101,"AE FOLLOW-UP",null,"2013-08-23","2013-08-23"],["CDISCPILOT01","SV","01-701-1294",201,"RETRIEVAL",168,"2013-10-08","2013-10-08"],["CDISCPILOT01","SV","01-701-1302",1,"SCREENING 1",-7,"2013-08-20","2013-08-20"],["CDISCPILOT01","SV","01-701-1302",2,"SCREENING 2",-1,"2013-08-27","2013-08-27"],["CDISCPILOT01","SV","01-701-1302",3,"BASELINE",1,"2013-08-29","2013-08-29"],["CDISCPILOT01","SV","01-701-1302",3.5,"AMBUL ECG PLACEMENT",13,"2013-09-09","2013-09-09"],["CDISCPILOT01","SV","01-701-1302",4,"WEEK 2",14,"2013-09-15","2013-09-15"],["CDISCPILOT01","SV","01-701-1302",5,"WEEK 4",28,"2013-09-24","2013-09-24"],["CDISCPILOT01","SV","01-701-1302",6,"AMBUL ECG REMOVAL",30,"2013-09-26","2013-09-26"],["CDISCPILOT01","SV","01-701-1302",7,"WEEK 6",42,"2013-10-08","2013-10-08"],["CDISCPILOT01","SV","01-701-1302",8,"WEEK 8",56,"2013-10-22","2013-10-22"],["CDISCPILOT01","SV","01-701-1302",9,"WEEK 12",84,"2013-11-05","2013-11-05"],["CDISCPILOT01","SV","01-701-1302",101,"AE FOLLOW-UP",null,"2013-12-16","2013-12-16"],["CDISCPILOT01","SV","01-701-1302",201,"RETRIEVAL",168,"2014-02-13","2014-02-13"],["CDISCPILOT01","SV","01-701-1307",1,"SCREENING 1",-7,"2013-12-08","2013-12-08"],["CDISCPILOT01","SV","01-701-1317",1,"SCREENING 1",-7,"2014-05-10","2014-05-10"],["CDISCPILOT01","SV","01-701-1317",1.1,"UNSCHEDULED 1.1",null,"2014-05-10","2014-05-10"],["CDISCPILOT01","SV","01-701-1317",2,"SCREENING 2",-1,"2014-05-20","2014-05-20"],["CDISCPILOT01","SV","01-701-1317",3,"BASELINE",1,"2014-05-22","2014-05-22"],["CDISCPILOT01","SV","01-701-1317",3.5,"AMBUL ECG PLACEMENT",13,"2014-06-04","2014-06-04"],["CDISCPILOT01","SV","01-701-1317",4,"WEEK 2",14,"2014-06-05","2014-06-05"],["CDISCPILOT01","SV","01-701-1317",5,"WEEK 4",28,"2014-06-19","2014-06-19"],["CDISCPILOT01","SV","01-701-1317",6,"AMBUL ECG REMOVAL",30,"2014-06-21","2014-06-21"],["CDISCPILOT01","SV","01-701-1317",7,"WEEK 6",42,"2014-07-03","2014-07-03"],["CDISCPILOT01","SV","01-701-1317",8,"WEEK 8",56,"2014-07-22","2014-07-22"],["CDISCPILOT01","SV","01-701-1317",8.1,"WEEK 10 (T)",70,"2014-07-30","2014-07-30"],["CDISCPILOT01","SV","01-701-1317",9,"WEEK 12",84,"2014-08-15","2014-08-15"],["CDISCPILOT01","SV","01-701-1317",9.1,"WEEK 14 (T)",98,"2014-08-28","2014-08-28"],["CDISCPILOT01","SV","01-701-1317",10,"WEEK 16",112,"2014-09-11","2014-09-11"],["CDISCPILOT01","SV","01-701-1317",10.1,"WEEK 18 (T)",126,"2014-09-25","2014-09-25"],["CDISCPILOT01","SV","01-701-1317",11,"WEEK 20",140,"2014-10-09","2014-10-09"],["CDISCPILOT01","SV","01-701-1317",11.1,"WEEK 22 (T)",154,"2014-10-23","2014-10-23"],["CDISCPILOT01","SV","01-701-1317",12,"WEEK 24",168,"2014-11-06","2014-11-06"],["CDISCPILOT01","SV","01-701-1317",13,"WEEK 26",182,"2014-11-20","2014-11-20"],["CDISCPILOT01","SV","01-701-1324",1,"SCREENING 1",-7,"2012-09-16","2012-09-16"],["CDISCPILOT01","SV","01-701-1324",1.1,"UNSCHEDULED 1.1",null,"2012-09-25","2012-09-25"],["CDISCPILOT01","SV","01-701-1324",2,"SCREENING 2",-1,"2012-09-25","2012-09-25"],["CDISCPILOT01","SV","01-701-1324",3,"BASELINE",1,"2012-10-02","2012-10-02"],["CDISCPILOT01","SV","01-701-1324",3.5,"AMBUL ECG PLACEMENT",13,"2012-10-15","2012-10-15"],["CDISCPILOT01","SV","01-701-1324",4,"WEEK 2",14,"2012-10-16","2012-10-16"],["CDISCPILOT01","SV","01-701-1324",4.1,"UNSCHEDULED 4.1",null,"2012-10-25","2012-10-25"],["CDISCPILOT01","SV","01-701-1324",5,"WEEK 4",28,"2012-10-30","2012-10-30"],["CDISCPILOT01","SV","01-701-1324",6,"AMBUL ECG REMOVAL",30,"2012-11-01","2012-11-01"],["CDISCPILOT01","SV","01-701-1324",7,"WEEK 6",42,"2012-11-13","2012-11-13"],["CDISCPILOT01","SV","01-701-1324",8,"WEEK 8",56,"2012-11-25","2012-11-25"],["CDISCPILOT01","SV","01-701-1324",8.1,"WEEK 10 (T)",70,"2012-12-11","2012-12-11"],["CDISCPILOT01","SV","01-701-1324",9,"WEEK 12",84,"2012-12-25","2012-12-25"],["CDISCPILOT01","SV","01-701-1324",9.1,"WEEK 14 (T)",98,"2013-01-08","2013-01-08"],["CDISCPILOT01","SV","01-701-1324",10,"WEEK 16",112,"2013-01-22","2013-01-22"],["CDISCPILOT01","SV","01-701-1324",10.1,"WEEK 18 (T)",126,"2013-02-05","2013-02-05"],["CDISCPILOT01","SV","01-701-1324",11,"WEEK 20",140,"2013-02-19","2013-02-19"],["CDISCPILOT01","SV","01-701-1324",11.1,"WEEK 22 (T)",154,"2013-03-05","2013-03-05"],["CDISCPILOT01","SV","01-701-1324",12,"WEEK 24",168,"2013-03-19","2013-03-19"],["CDISCPILOT01","SV","01-701-1324",13,"WEEK 26",182,"2013-04-02","2013-04-02"],["CDISCPILOT01","SV","01-701-1341",1,"SCREENING 1",-7,"2012-12-22","2012-12-22"],["CDISCPILOT01","SV","01-701-1341",1.1,"UNSCHEDULED 1.1",null,"2012-12-26","2012-12-26"],["CDISCPILOT01","SV","01-701-1341",2,"SCREENING 2",-1,"2013-01-03","2013-01-03"],["CDISCPILOT01","SV","01-701-1341",3,"BASELINE",1,"2013-01-05","2013-01-05"],["CDISCPILOT01","SV","01-701-1341",3.5,"AMBUL ECG PLACEMENT",13,"2013-01-17","2013-01-17"],["CDISCPILOT01","SV","01-701-1341",4,"WEEK 2",14,"2013-01-18","2013-01-18"],["CDISCPILOT01","SV","01-701-1341",5,"WEEK 4",28,"2013-02-07","2013-02-07"],["CDISCPILOT01","SV","01-701-1341",101,"AE FOLLOW-UP",null,"2013-02-21","2013-02-21"],["CDISCPILOT01","SV","01-701-1345",1,"SCREENING 1",-7,"2013-10-01","2013-10-01"],["CDISCPILOT01","SV","01-701-1345",2,"SCREENING 2",-1,"2013-10-06","2013-10-06"],["CDISCPILOT01","SV","01-701-1345",3,"BASELINE",1,"2013-10-08","2013-10-08"],["CDISCPILOT01","SV","01-701-1345",3.5,"AMBUL ECG PLACEMENT",13,"2013-10-23","2013-10-23"],["CDISCPILOT01","SV","01-701-1345",4,"WEEK 2",14,"2013-10-24","2013-10-24"],["CDISCPILOT01","SV","01-701-1345",5,"WEEK 4",28,"2013-11-08","2013-11-08"],["CDISCPILOT01","SV","01-701-1345",6,"AMBUL ECG REMOVAL",30,"2013-11-10","2013-11-10"],["CDISCPILOT01","SV","01-701-1345",7,"WEEK 6",42,"2013-11-19","2013-11-19"],["CDISCPILOT01","SV","01-701-1345",8,"WEEK 8",56,"2013-12-03","2013-12-03"],["CDISCPILOT01","SV","01-701-1345",8.1,"WEEK 10 (T)",70,"2013-12-18","2013-12-18"],["CDISCPILOT01","SV","01-701-1345",9,"WEEK 12",84,"2013-12-31","2013-12-31"],["CDISCPILOT01","SV","01-701-1345",9.1,"WEEK 14 (T)",98,"2014-01-14","2014-01-14"],["CDISCPILOT01","SV","01-701-1345",10,"WEEK 16",112,"2014-01-27","2014-01-27"],["CDISCPILOT01","SV","01-701-1345",10.1,"WEEK 18 (T)",126,"2014-02-11","2014-02-11"],["CDISCPILOT01","SV","01-701-1345",11,"WEEK 20",140,"2014-02-25","2014-02-25"],["CDISCPILOT01","SV","01-701-1345",11.1,"WEEK 22 (T)",154,"2014-03-11","2014-03-11"],["CDISCPILOT01","SV","01-701-1345",12,"WEEK 24",168,"2014-03-18","2014-03-18"],["CDISCPILOT01","SV","01-701-1356",1,"SCREENING 1",-7,"2014-04-01","2014-04-01"],["CDISCPILOT01","SV","01-701-1360",1,"SCREENING 1",-7,"2013-07-24","2013-07-24"],["CDISCPILOT01","SV","01-701-1360",2,"SCREENING 2",-1,"2013-07-29","2013-07-29"],["CDISCPILOT01","SV","01-701-1360",3,"BASELINE",1,"2013-07-31","2013-07-31"],["CDISCPILOT01","SV","01-701-1360",4,"WEEK 2",14,"2013-08-14","2013-08-14"],["CDISCPILOT01","SV","01-701-1360",101,"AE FOLLOW-UP",null,"2013-09-09","2013-09-09"],["CDISCPILOT01","SV","01-701-1360",201,"RETRIEVAL",168,"2014-02-11","2014-02-11"],["CDISCPILOT01","SV","01-701-1363",1,"SCREENING 1",-7,"2013-05-20","2013-05-20"],["CDISCPILOT01","SV","01-701-1363",2,"SCREENING 2",-1,"2013-05-28","2013-05-28"],["CDISCPILOT01","SV","01-701-1363",3,"BASELINE",1,"2013-05-30","2013-05-30"],["CDISCPILOT01","SV","01-701-1363",3.5,"AMBUL ECG PLACEMENT",13,"2013-06-11","2013-06-11"],["CDISCPILOT01","SV","01-701-1363",4,"WEEK 2",14,"2013-06-12","2013-06-12"],["CDISCPILOT01","SV","01-701-1363",5,"WEEK 4",28,"2013-06-25","2013-06-25"],["CDISCPILOT01","SV","01-701-1363",6,"AMBUL ECG REMOVAL",30,"2013-06-27","2013-06-27"],["CDISCPILOT01","SV","01-701-1363",7,"WEEK 6",42,"2013-07-10","2013-07-10"],["CDISCPILOT01","SV","01-701-1363",8,"WEEK 8",56,"2013-07-24","2013-07-24"],["CDISCPILOT01","SV","01-701-1363",8.1,"WEEK 10 (T)",70,"2013-08-07","2013-08-07"],["CDISCPILOT01","SV","01-701-1363",9,"WEEK 12",84,"2013-08-21","2013-08-21"],["CDISCPILOT01","SV","01-701-1363",9.1,"WEEK 14 (T)",98,"2013-09-04","2013-09-04"],["CDISCPILOT01","SV","01-701-1363",10,"WEEK 16",112,"2013-09-18","2013-09-18"],["CDISCPILOT01","SV","01-701-1363",10.1,"WEEK 18 (T)",126,"2013-10-02","2013-10-02"],["CDISCPILOT01","SV","01-701-1363",10.2,"UNSCHEDULED 10.2",null,"2013-10-02","2013-10-02"],["CDISCPILOT01","SV","01-701-1363",11,"WEEK 20",140,"2013-10-14","2013-10-14"],["CDISCPILOT01","SV","01-701-1363",11.1,"WEEK 22 (T)",154,"2013-10-30","2013-10-30"],["CDISCPILOT01","SV","01-701-1363",12,"WEEK 24",168,"2013-11-13","2013-11-13"],["CDISCPILOT01","SV","01-701-1363",13,"WEEK 26",182,"2013-11-27","2013-11-27"],["CDISCPILOT01","SV","01-701-1369",1,"SCREENING 1",-7,"2013-09-18","2013-09-18"],["CDISCPILOT01","SV","01-701-1383",1,"SCREENING 1",-7,"2013-01-22","2013-01-22"],["CDISCPILOT01","SV","01-701-1383",2,"SCREENING 2",-1,"2013-02-02","2013-02-02"],["CDISCPILOT01","SV","01-701-1383",3,"BASELINE",1,"2013-02-04","2013-02-04"],["CDISCPILOT01","SV","01-701-1383",3.5,"AMBUL ECG PLACEMENT",13,"2013-02-18","2013-02-18"],["CDISCPILOT01","SV","01-701-1383",4,"WEEK 2",14,"2013-02-19","2013-02-19"],["CDISCPILOT01","SV","01-701-1383",5,"WEEK 4",28,"2013-03-12","2013-03-12"],["CDISCPILOT01","SV","01-701-1383",6,"AMBUL ECG REMOVAL",30,"2013-03-14","2013-03-14"],["CDISCPILOT01","SV","01-701-1383",7,"WEEK 6",42,"2013-03-19","2013-03-19"],["CDISCPILOT01","SV","01-701-1383",8,"WEEK 8",56,"2013-04-02","2013-04-02"],["CDISCPILOT01","SV","01-701-1383",8.1,"WEEK 10 (T)",70,"2013-04-16","2013-04-16"],["CDISCPILOT01","SV","01-701-1383",9,"WEEK 12",84,"2013-04-30","2013-04-30"],["CDISCPILOT01","SV","01-701-1383",9.1,"WEEK 14 (T)",98,"2013-05-14","2013-05-14"],["CDISCPILOT01","SV","01-701-1383",10,"WEEK 16",112,"2013-05-30","2013-05-30"],["CDISCPILOT01","SV","01-701-1383",10.1,"WEEK 18 (T)",126,"2013-06-13","2013-06-13"],["CDISCPILOT01","SV","01-701-1383",11,"WEEK 20",140,"2013-06-25","2013-06-25"],["CDISCPILOT01","SV","01-701-1383",11.1,"WEEK 22 (T)",154,"2013-07-09","2013-07-09"],["CDISCPILOT01","SV","01-701-1383",12,"WEEK 24",168,"2013-07-30","2013-07-30"],["CDISCPILOT01","SV","01-701-1383",13,"WEEK 26",182,"2013-08-06","2013-08-06"],["CDISCPILOT01","SV","01-701-1386",1,"SCREENING 1",-7,"2013-12-28","2013-12-28"],["CDISCPILOT01","SV","01-701-1387",1,"SCREENING 1",-7,"2014-02-23","2014-02-23"],["CDISCPILOT01","SV","01-701-1387",2,"SCREENING 2",-1,"2014-03-08","2014-03-08"],["CDISCPILOT01","SV","01-701-1387",3,"BASELINE",1,"2014-03-12","2014-03-12"],["CDISCPILOT01","SV","01-701-1387",4,"WEEK 2",14,"2014-03-25","2014-03-25"],["CDISCPILOT01","SV","01-701-1387",201,"RETRIEVAL",168,"2014-08-27","2014-08-27"],["CDISCPILOT01","SV","01-701-1392",1,"SCREENING 1",-7,"2012-10-17","2012-10-17"],["CDISCPILOT01","SV","01-701-1392",2,"SCREENING 2",-1,"2012-10-26","2012-10-26"],["CDISCPILOT01","SV","01-701-1392",3,"BASELINE",1,"2012-10-28","2012-10-28"],["CDISCPILOT01","SV","01-701-1392",3.5,"AMBUL ECG PLACEMENT",13,"2012-11-10","2012-11-10"],["CDISCPILOT01","SV","01-701-1392",4,"WEEK 2",14,"2012-11-11","2012-11-11"],["CDISCPILOT01","SV","01-701-1392",5,"WEEK 4",28,"2012-11-24","2012-11-24"],["CDISCPILOT01","SV","01-701-1392",6,"AMBUL ECG REMOVAL",30,"2012-11-26","2012-11-26"],["CDISCPILOT01","SV","01-701-1392",7,"WEEK 6",42,"2012-12-09","2012-12-09"],["CDISCPILOT01","SV","01-701-1392",8,"WEEK 8",56,"2012-12-20","2012-12-20"],["CDISCPILOT01","SV","01-701-1392",8.1,"WEEK 10 (T)",70,"2013-01-06","2013-01-06"],["CDISCPILOT01","SV","01-701-1392",9,"WEEK 12",84,"2013-01-20","2013-01-20"],["CDISCPILOT01","SV","01-701-1392",9.1,"WEEK 14 (T)",98,"2013-02-03","2013-02-03"],["CDISCPILOT01","SV","01-701-1392",10,"WEEK 16",112,"2013-02-17","2013-02-17"],["CDISCPILOT01","SV","01-701-1392",10.1,"WEEK 18 (T)",126,"2013-03-03","2013-03-03"],["CDISCPILOT01","SV","01-701-1392",11,"WEEK 20",140,"2013-03-17","2013-03-17"],["CDISCPILOT01","SV","01-701-1392",11.1,"WEEK 22 (T)",154,"2013-03-31","2013-03-31"],["CDISCPILOT01","SV","01-701-1392",12,"WEEK 24",168,"2013-04-15","2013-04-15"],["CDISCPILOT01","SV","01-701-1392",13,"WEEK 26",182,"2013-04-28","2013-04-28"],["CDISCPILOT01","SV","01-701-1411",1,"SCREENING 1",-7,"2012-11-14","2012-11-14"],["CDISCPILOT01","SV","01-701-1415",1,"SCREENING 1",-7,"2013-09-15","2013-09-15"],["CDISCPILOT01","SV","01-701-1415",1.1,"UNSCHEDULED 1.1",null,"2013-09-21","2013-09-21"],["CDISCPILOT01","SV","01-701-1415",2,"SCREENING 2",-1,"2013-09-21","2013-09-21"],["CDISCPILOT01","SV","01-701-1415",3,"BASELINE",1,"2013-09-23","2013-09-23"],["CDISCPILOT01","SV","01-701-1415",3.5,"AMBUL ECG PLACEMENT",13,"2013-10-06","2013-10-06"],["CDISCPILOT01","SV","01-701-1415",4,"WEEK 2",14,"2013-10-07","2013-10-07"],["CDISCPILOT01","SV","01-701-1415",5,"WEEK 4",28,"2013-10-20","2013-10-20"],["CDISCPILOT01","SV","01-701-1415",6,"AMBUL ECG REMOVAL",30,"2013-10-22","2013-10-22"],["CDISCPILOT01","SV","01-701-1415",7,"WEEK 6",42,"2013-11-04","2013-11-04"],["CDISCPILOT01","SV","01-701-1415",8,"WEEK 8",56,"2013-11-21","2013-11-21"],["CDISCPILOT01","SV","01-701-1415",8.1,"WEEK 10 (T)",70,"2013-12-02","2013-12-02"],["CDISCPILOT01","SV","01-701-1415",9,"WEEK 12",84,"2013-12-21","2013-12-21"],["CDISCPILOT01","SV","01-701-1415",9.1,"WEEK 14 (T)",98,"2013-12-30","2013-12-30"],["CDISCPILOT01","SV","01-701-1415",10,"WEEK 16",112,"2014-01-14","2014-01-14"],["CDISCPILOT01","SV","01-701-1415",10.1,"WEEK 18 (T)",126,"2014-01-27","2014-01-27"],["CDISCPILOT01","SV","01-701-1415",11,"WEEK 20",140,"2014-02-10","2014-02-10"],["CDISCPILOT01","SV","01-701-1415",11.1,"WEEK 22 (T)",154,"2014-02-24","2014-02-24"],["CDISCPILOT01","SV","01-701-1415",12,"WEEK 24",168,"2014-03-10","2014-03-10"],["CDISCPILOT01","SV","01-701-1415",13,"WEEK 26",182,"2014-03-24","2014-03-24"],["CDISCPILOT01","SV","01-701-1429",1,"SCREENING 1",-7,"2013-02-25","2013-02-25"],["CDISCPILOT01","SV","01-701-1429",2,"SCREENING 2",-1,"2013-03-17","2013-03-17"],["CDISCPILOT01","SV","01-701-1429",3,"BASELINE",1,"2013-03-19","2013-03-19"],["CDISCPILOT01","SV","01-701-1429",4,"WEEK 2",14,"2013-04-02","2013-04-02"],["CDISCPILOT01","SV","01-701-1429",5,"WEEK 4",28,"2013-04-16","2013-04-16"],["CDISCPILOT01","SV","01-701-1429",7,"WEEK 6",42,"2013-04-30","2013-04-30"],["CDISCPILOT01","SV","01-701-1440",1,"SCREENING 1",-7,"2013-07-24","2013-07-24"],["CDISCPILOT01","SV","01-701-1440",2,"SCREENING 2",-1,"2013-08-06","2013-08-06"],["CDISCPILOT01","SV","01-701-1440",3,"BASELINE",1,"2013-08-08","2013-08-08"],["CDISCPILOT01","SV","01-701-1440",3.5,"AMBUL ECG PLACEMENT",13,"2013-08-22","2013-08-22"],["CDISCPILOT01","SV","01-701-1440",4,"WEEK 2",14,"2013-08-23","2013-08-23"],["CDISCPILOT01","SV","01-701-1440",5,"WEEK 4",28,"2013-09-04","2013-09-04"],["CDISCPILOT01","SV","01-701-1440",6,"AMBUL ECG REMOVAL",30,"2013-09-06","2013-09-06"],["CDISCPILOT01","SV","01-701-1440",7,"WEEK 6",42,"2013-09-22","2013-09-22"],["CDISCPILOT01","SV","01-701-1440",8,"WEEK 8",56,"2013-10-03","2013-10-03"],["CDISCPILOT01","SV","01-701-1440",8.1,"WEEK 10 (T)",70,"2013-10-17","2013-10-17"],["CDISCPILOT01","SV","01-701-1440",9,"WEEK 12",84,"2013-10-31","2013-10-31"],["CDISCPILOT01","SV","01-701-1440",9.1,"WEEK 14 (T)",98,"2013-11-14","2013-11-14"],["CDISCPILOT01","SV","01-701-1440",10,"WEEK 16",112,"2013-11-27","2013-11-27"],["CDISCPILOT01","SV","01-701-1440",10.1,"WEEK 18 (T)",126,"2013-12-12","2013-12-12"],["CDISCPILOT01","SV","01-701-1440",11,"WEEK 20",140,"2013-12-25","2013-12-25"],["CDISCPILOT01","SV","01-701-1440",11.1,"WEEK 22 (T)",154,"2014-01-08","2014-01-08"],["CDISCPILOT01","SV","01-701-1440",12,"WEEK 24",168,"2014-01-22","2014-01-22"],["CDISCPILOT01","SV","01-701-1440",13,"WEEK 26",182,"2014-02-05","2014-02-05"],["CDISCPILOT01","SV","01-701-1442",1,"SCREENING 1",-7,"2013-10-17","2013-10-17"],["CDISCPILOT01","SV","01-701-1442",2,"SCREENING 2",-1,"2013-10-24","2013-10-24"],["CDISCPILOT01","SV","01-701-1442",3,"BASELINE",1,"2013-10-26","2013-10-26"],["CDISCPILOT01","SV","01-701-1442",3.5,"AMBUL ECG PLACEMENT",13,"2013-11-08","2013-11-08"],["CDISCPILOT01","SV","01-701-1442",4,"WEEK 2",14,"2013-11-09","2013-11-09"],["CDISCPILOT01","SV","01-701-1442",5,"WEEK 4",28,"2013-11-23","2013-11-23"],["CDISCPILOT01","SV","01-701-1442",6,"AMBUL ECG REMOVAL",30,"2013-11-25","2013-11-25"],["CDISCPILOT01","SV","01-701-1442",7,"WEEK 6",42,"2013-12-07","2013-12-07"],["CDISCPILOT01","SV","01-701-1442",8,"WEEK 8",56,"2013-12-26","2013-12-26"],["CDISCPILOT01","SV","01-701-1442",8.1,"WEEK 10 (T)",70,"2014-01-04","2014-01-04"],["CDISCPILOT01","SV","01-701-1442",9,"WEEK 12",84,"2014-01-18","2014-01-18"],["CDISCPILOT01","SV","01-701-1442",9.1,"WEEK 14 (T)",98,"2014-02-01","2014-02-01"],["CDISCPILOT01","SV","01-701-1442",10,"WEEK 16",112,"2014-02-15","2014-02-15"],["CDISCPILOT01","SV","01-701-1442",10.1,"WEEK 18 (T)",126,"2014-03-01","2014-03-01"],["CDISCPILOT01","SV","01-701-1442",11,"WEEK 20",140,"2014-03-15","2014-03-15"],["CDISCPILOT01","SV","01-701-1442",11.1,"WEEK 22 (T)",154,"2014-03-29","2014-03-29"],["CDISCPILOT01","SV","01-701-1442",12,"WEEK 24",168,"2014-04-17","2014-04-17"],["CDISCPILOT01","SV","01-701-1442",13,"WEEK 26",182,"2014-04-26","2014-04-26"],["CDISCPILOT01","SV","01-701-1444",1,"SCREENING 1",-7,"2012-12-31","2012-12-31"],["CDISCPILOT01","SV","01-701-1444",2,"SCREENING 2",-1,"2013-01-03","2013-01-03"],["CDISCPILOT01","SV","01-701-1444",3,"BASELINE",1,"2013-01-05","2013-01-05"],["CDISCPILOT01","SV","01-701-1444",3.5,"AMBUL ECG PLACEMENT",13,"2013-01-17","2013-01-17"],["CDISCPILOT01","SV","01-701-1444",4,"WEEK 2",14,"2013-01-18","2013-01-18"],["CDISCPILOT01","SV","01-701-1444",5,"WEEK 4",28,"2013-01-31","2013-01-31"],["CDISCPILOT01","SV","01-701-1444",6,"AMBUL ECG REMOVAL",30,"2013-02-02","2013-02-02"],["CDISCPILOT01","SV","01-701-1444",7,"WEEK 6",42,"2013-02-13","2013-02-13"],["CDISCPILOT01","SV","01-701-1444",101,"AE FOLLOW-UP",null,"2013-06-20","2013-06-20"],["CDISCPILOT01","SV","01-701-1444",201,"RETRIEVAL",168,"2013-06-20","2013-06-20"],["CDISCPILOT01","SV","01-702-1082",1,"SCREENING 1",-7,"2013-07-03","2013-07-03"],["CDISCPILOT01","SV","01-702-1082",1.1,"UNSCHEDULED 1.1",null,"2013-07-24","2013-07-24"],["CDISCPILOT01","SV","01-702-1082",2,"SCREENING 2",-1,"2013-07-24","2013-07-24"],["CDISCPILOT01","SV","01-702-1082",3,"BASELINE",1,"2013-07-26","2013-07-26"],["CDISCPILOT01","SV","01-702-1082",3.5,"AMBUL ECG PLACEMENT",13,"2013-08-07","2013-08-07"],["CDISCPILOT01","SV","01-702-1082",4,"WEEK 2",14,"2013-08-08","2013-08-08"],["CDISCPILOT01","SV","01-702-1082",5,"WEEK 4",28,"2013-08-24","2013-08-24"],["CDISCPILOT01","SV","01-702-1082",6,"AMBUL ECG REMOVAL",30,"2013-09-04","2013-09-04"],["CDISCPILOT01","SV","01-702-1082",7,"WEEK 6",42,"2013-09-06","2013-09-06"],["CDISCPILOT01","SV","01-702-1082",8,"WEEK 8",56,"2013-09-28","2013-09-28"],["CDISCPILOT01","SV","01-702-1082",8.1,"WEEK 10 (T)",70,"2013-10-12","2013-10-12"],["CDISCPILOT01","SV","01-702-1082",9,"WEEK 12",84,"2013-11-17","2013-11-17"],["CDISCPILOT01","SV","01-703-1042",1,"SCREENING 1",-7,"2013-02-23","2013-02-23"],["CDISCPILOT01","SV","01-703-1042",1.1,"UNSCHEDULED 1.1",null,"2013-02-21","2013-02-21"],["CDISCPILOT01","SV","01-703-1042",2,"SCREENING 2",-1,"2013-02-28","2013-02-28"],["CDISCPILOT01","SV","01-703-1042",3,"BASELINE",1,"2013-03-02","2013-03-02"],["CDISCPILOT01","SV","01-703-1042",3.5,"AMBUL ECG PLACEMENT",13,"2013-03-13","2013-03-13"],["CDISCPILOT01","SV","01-703-1042",4,"WEEK 2",14,"2013-03-14","2013-03-14"],["CDISCPILOT01","SV","01-703-1042",5,"WEEK 4",28,"2013-03-28","2013-03-28"],["CDISCPILOT01","SV","01-703-1042",6,"AMBUL ECG REMOVAL",30,"2013-03-30","2013-03-30"],["CDISCPILOT01","SV","01-703-1042",7,"WEEK 6",42,"2013-04-13","2013-04-13"],["CDISCPILOT01","SV","01-703-1042",8,"WEEK 8",56,"2013-04-27","2013-04-27"],["CDISCPILOT01","SV","01-703-1042",8.1,"WEEK 10 (T)",70,"2013-05-11","2013-05-11"],["CDISCPILOT01","SV","01-703-1042",9,"WEEK 12",84,"2013-05-25","2013-05-25"],["CDISCPILOT01","SV","01-703-1042",9.1,"WEEK 14 (T)",98,"2013-06-08","2013-06-08"],["CDISCPILOT01","SV","01-703-1042",10,"WEEK 16",112,"2013-06-22","2013-06-22"],["CDISCPILOT01","SV","01-703-1042",10.1,"WEEK 18 (T)",126,"2013-07-06","2013-07-06"],["CDISCPILOT01","SV","01-703-1042",11,"WEEK 20",140,"2013-07-20","2013-07-20"],["CDISCPILOT01","SV","01-703-1042",11.1,"WEEK 22 (T)",154,"2013-08-03","2013-08-03"],["CDISCPILOT01","SV","01-703-1042",12,"WEEK 24",168,"2013-08-09","2013-08-09"],["CDISCPILOT01","SV","01-703-1042",13,"WEEK 26",182,"2013-08-31","2013-08-31"],["CDISCPILOT01","SV","01-703-1076",1,"SCREENING 1",-7,"2013-10-17","2013-10-17"],["CDISCPILOT01","SV","01-703-1076",2,"SCREENING 2",-1,"2013-10-23","2013-10-23"],["CDISCPILOT01","SV","01-703-1076",3,"BASELINE",1,"2013-10-25","2013-10-25"],["CDISCPILOT01","SV","01-703-1076",3.5,"AMBUL ECG PLACEMENT",13,"2013-11-05","2013-11-05"],["CDISCPILOT01","SV","01-703-1076",4,"WEEK 2",14,"2013-11-06","2013-11-06"],["CDISCPILOT01","SV","01-703-1076",5,"WEEK 4",28,"2013-11-20","2013-11-20"],["CDISCPILOT01","SV","01-703-1076",6,"AMBUL ECG REMOVAL",30,"2013-11-22","2013-11-22"],["CDISCPILOT01","SV","01-703-1076",7,"WEEK 6",42,"2013-12-04","2013-12-04"],["CDISCPILOT01","SV","01-703-1076",8,"WEEK 8",56,"2013-12-17","2013-12-17"],["CDISCPILOT01","SV","01-703-1076",9,"WEEK 12",84,"2013-12-24","2013-12-24"],["CDISCPILOT01","SV","01-703-1076",101,"AE FOLLOW-UP",null,"2014-01-21","2014-01-21"],["CDISCPILOT01","SV","01-703-1086",1,"SCREENING 1",-7,"2012-08-22","2012-08-22"],["CDISCPILOT01","SV","01-703-1086",1.1,"UNSCHEDULED 1.1",null,"2012-08-31","2012-08-31"],["CDISCPILOT01","SV","01-703-1086",2,"SCREENING 2",-1,"2012-08-31","2012-08-31"],["CDISCPILOT01","SV","01-703-1086",3,"BASELINE",1,"2012-09-02","2012-09-02"],["CDISCPILOT01","SV","01-703-1086",3.5,"AMBUL ECG PLACEMENT",13,"2012-09-15","2012-09-15"],["CDISCPILOT01","SV","01-703-1086",4,"WEEK 2",14,"2012-09-16","2012-09-16"],["CDISCPILOT01","SV","01-703-1086",5,"WEEK 4",28,"2012-09-30","2012-09-30"],["CDISCPILOT01","SV","01-703-1086",6,"AMBUL ECG REMOVAL",30,"2012-10-02","2012-10-02"],["CDISCPILOT01","SV","01-703-1086",7,"WEEK 6",42,"2012-10-13","2012-10-13"],["CDISCPILOT01","SV","01-703-1086",8,"WEEK 8",56,"2012-10-27","2012-10-27"],["CDISCPILOT01","SV","01-703-1086",8.1,"WEEK 10 (T)",70,"2012-11-10","2012-11-10"],["CDISCPILOT01","SV","01-703-1086",9,"WEEK 12",84,"2012-11-27","2012-11-27"],["CDISCPILOT01","SV","01-703-1086",9.1,"WEEK 14 (T)",98,"2012-12-11","2012-12-11"],["CDISCPILOT01","SV","01-703-1086",10,"WEEK 16",112,"2012-12-24","2012-12-24"],["CDISCPILOT01","SV","01-703-1086",101,"AE FOLLOW-UP",null,"2013-01-02","2013-01-02"],["CDISCPILOT01","SV","01-703-1086",201,"RETRIEVAL",168,"2013-03-26","2013-03-26"],["CDISCPILOT01","SV","01-703-1096",1,"SCREENING 1",-7,"2012-12-19","2012-12-19"],["CDISCPILOT01","SV","01-703-1096",1.1,"UNSCHEDULED 1.1",null,"2012-12-19","2012-12-19"],["CDISCPILOT01","SV","01-703-1096",1.2,"UNSCHEDULED 1.2",null,"2012-12-29","2012-12-29"],["CDISCPILOT01","SV","01-703-1096",1.3,"UNSCHEDULED 1.3",null,"2013-01-23","2013-01-23"],["CDISCPILOT01","SV","01-703-1096",2,"SCREENING 2",-1,"2013-01-23","2013-01-23"],["CDISCPILOT01","SV","01-703-1096",3,"BASELINE",1,"2013-01-25","2013-01-25"],["CDISCPILOT01","SV","01-703-1096",3.5,"AMBUL ECG PLACEMENT",13,"2013-02-08","2013-02-08"],["CDISCPILOT01","SV","01-703-1096",4,"WEEK 2",14,"2013-02-09","2013-02-09"],["CDISCPILOT01","SV","01-703-1096",5,"WEEK 4",28,"2013-02-23","2013-02-23"],["CDISCPILOT01","SV","01-703-1096",6,"AMBUL ECG REMOVAL",30,"2013-02-27","2013-02-27"],["CDISCPILOT01","SV","01-703-1096",7,"WEEK 6",42,"2013-03-29","2013-03-29"],["CDISCPILOT01","SV","01-703-1100",1,"SCREENING 1",-7,"2013-02-28","2013-02-28"],["CDISCPILOT01","SV","01-703-1100",1.1,"UNSCHEDULED 1.1",null,"2012-12-27","2012-12-27"],["CDISCPILOT01","SV","01-703-1100",1.2,"UNSCHEDULED 1.2",null,"2013-02-28","2013-02-28"],["CDISCPILOT01","SV","01-703-1100",2,"SCREENING 2",-1,"2013-03-11","2013-03-11"],["CDISCPILOT01","SV","01-703-1100",3,"BASELINE",1,"2013-03-13","2013-03-13"],["CDISCPILOT01","SV","01-703-1100",3.5,"AMBUL ECG PLACEMENT",13,"2013-03-28","2013-03-28"],["CDISCPILOT01","SV","01-703-1100",4,"WEEK 2",14,"2013-03-29","2013-03-29"],["CDISCPILOT01","SV","01-703-1100",5,"WEEK 4",28,"2013-04-12","2013-04-12"],["CDISCPILOT01","SV","01-703-1100",6,"AMBUL ECG REMOVAL",30,"2013-04-14","2013-04-14"],["CDISCPILOT01","SV","01-703-1100",7,"WEEK 6",42,"2013-04-24","2013-04-24"],["CDISCPILOT01","SV","01-703-1100",8,"WEEK 8",56,"2013-05-08","2013-05-08"],["CDISCPILOT01","SV","01-703-1100",8.1,"WEEK 10 (T)",70,"2013-05-22","2013-05-22"],["CDISCPILOT01","SV","01-703-1100",9,"WEEK 12",84,"2013-06-05","2013-06-05"],["CDISCPILOT01","SV","01-703-1100",9.1,"WEEK 14 (T)",98,"2013-06-19","2013-06-19"],["CDISCPILOT01","SV","01-703-1100",10,"WEEK 16",112,"2013-07-03","2013-07-03"],["CDISCPILOT01","SV","01-703-1100",10.1,"WEEK 18 (T)",126,"2013-07-19","2013-07-19"],["CDISCPILOT01","SV","01-703-1100",11,"WEEK 20",140,"2013-07-31","2013-07-31"],["CDISCPILOT01","SV","01-703-1100",11.1,"WEEK 22 (T)",154,"2013-08-09","2013-08-09"],["CDISCPILOT01","SV","01-703-1100",12,"WEEK 24",168,"2013-08-28","2013-08-28"],["CDISCPILOT01","SV","01-703-1100",13,"WEEK 26",182,"2013-09-14","2013-09-14"],["CDISCPILOT01","SV","01-703-1119",1,"SCREENING 1",-7,"2013-02-02","2013-02-02"],["CDISCPILOT01","SV","01-703-1119",1.1,"UNSCHEDULED 1.1",null,"2013-02-13","2013-02-13"],["CDISCPILOT01","SV","01-703-1119",1.2,"UNSCHEDULED 1.2",null,"2013-02-16","2013-02-16"],["CDISCPILOT01","SV","01-703-1119",1.3,"UNSCHEDULED 1.3",null,"2013-02-14","2013-02-14"],["CDISCPILOT01","SV","01-703-1119",2,"SCREENING 2",-1,"2013-02-14","2013-02-14"],["CDISCPILOT01","SV","01-703-1119",3,"BASELINE",1,"2013-02-20","2013-02-20"],["CDISCPILOT01","SV","01-703-1119",3.5,"AMBUL ECG PLACEMENT",13,"2013-03-09","2013-03-09"],["CDISCPILOT01","SV","01-703-1119",4,"WEEK 2",14,"2013-03-10","2013-03-10"],["CDISCPILOT01","SV","01-703-1119",5,"WEEK 4",28,"2013-03-21","2013-03-21"],["CDISCPILOT01","SV","01-703-1119",6,"AMBUL ECG REMOVAL",30,"2013-03-23","2013-03-23"],["CDISCPILOT01","SV","01-703-1119",7,"WEEK 6",42,"2013-04-04","2013-04-04"],["CDISCPILOT01","SV","01-703-1119",8,"WEEK 8",56,"2013-04-19","2013-04-19"],["CDISCPILOT01","SV","01-703-1119",8.1,"WEEK 10 (T)",70,"2013-05-03","2013-05-03"],["CDISCPILOT01","SV","01-703-1119",9,"WEEK 12",84,"2013-05-17","2013-05-17"],["CDISCPILOT01","SV","01-703-1119",9.1,"WEEK 14 (T)",98,"2013-05-31","2013-05-31"],["CDISCPILOT01","SV","01-703-1119",10,"WEEK 16",112,"2013-06-13","2013-06-13"],["CDISCPILOT01","SV","01-703-1119",101,"AE FOLLOW-UP",null,"2013-07-20","2013-07-20"],["CDISCPILOT01","SV","01-703-1119",201,"RETRIEVAL",168,"2013-08-24","2013-08-24"],["CDISCPILOT01","SV","01-703-1175",1,"SCREENING 1",-7,"2013-12-13","2013-12-13"],["CDISCPILOT01","SV","01-703-1175",2,"SCREENING 2",-1,"2013-12-18","2013-12-18"],["CDISCPILOT01","SV","01-703-1175",3,"BASELINE",1,"2013-12-20","2013-12-20"],["CDISCPILOT01","SV","01-703-1175",4,"WEEK 2",14,"2013-12-31","2013-12-31"],["CDISCPILOT01","SV","01-703-1175",101,"AE FOLLOW-UP",null,"2013-12-31","2013-12-31"],["CDISCPILOT01","SV","01-703-1182",1,"SCREENING 1",-7,"2013-10-08","2013-10-08"],["CDISCPILOT01","SV","01-703-1182",2,"SCREENING 2",-1,"2013-10-15","2013-10-15"],["CDISCPILOT01","SV","01-703-1182",3,"BASELINE",1,"2013-10-17","2013-10-17"],["CDISCPILOT01","SV","01-703-1182",3.5,"AMBUL ECG PLACEMENT",13,"2013-10-30","2013-10-30"],["CDISCPILOT01","SV","01-703-1182",4,"WEEK 2",14,"2013-10-31","2013-10-31"],["CDISCPILOT01","SV","01-703-1182",5,"WEEK 4",28,"2013-11-19","2013-11-19"],["CDISCPILOT01","SV","01-703-1182",6,"AMBUL ECG REMOVAL",30,"2013-11-20","2013-11-20"],["CDISCPILOT01","SV","01-703-1182",7,"WEEK 6",42,"2013-11-28","2013-11-28"],["CDISCPILOT01","SV","01-703-1182",8,"WEEK 8",56,"2013-12-12","2013-12-12"],["CDISCPILOT01","SV","01-703-1182",101,"AE FOLLOW-UP",null,"2014-01-14","2014-01-14"],["CDISCPILOT01","SV","01-703-1197",1,"SCREENING 1",-7,"2013-06-01","2013-06-01"],["CDISCPILOT01","SV","01-703-1197",1.1,"UNSCHEDULED 1.1",null,"2013-06-01","2013-06-01"],["CDISCPILOT01","SV","01-703-1197",2,"SCREENING 2",-1,"2013-06-14","2013-06-14"],["CDISCPILOT01","SV","01-703-1197",3,"BASELINE",1,"2013-06-16","2013-06-16"],["CDISCPILOT01","SV","01-703-1197",4,"WEEK 2",14,"2013-07-22","2013-07-22"],["CDISCPILOT01","SV","01-703-1210",1,"SCREENING 1",-7,"2013-03-08","2013-03-08"],["CDISCPILOT01","SV","01-703-1210",2,"SCREENING 2",-1,"2013-03-14","2013-03-14"],["CDISCPILOT01","SV","01-703-1210",3,"BASELINE",1,"2013-03-16","2013-03-16"],["CDISCPILOT01","SV","01-703-1210",3.5,"AMBUL ECG PLACEMENT",13,"2013-03-29","2013-03-29"],["CDISCPILOT01","SV","01-703-1210",4,"WEEK 2",14,"2013-03-30","2013-03-30"],["CDISCPILOT01","SV","01-703-1210",5,"WEEK 4",28,"2013-04-12","2013-04-12"],["CDISCPILOT01","SV","01-703-1210",6,"AMBUL ECG REMOVAL",30,"2013-04-14","2013-04-14"],["CDISCPILOT01","SV","01-703-1210",7,"WEEK 6",42,"2013-04-28","2013-04-28"],["CDISCPILOT01","SV","01-703-1210",8,"WEEK 8",56,"2013-05-10","2013-05-10"],["CDISCPILOT01","SV","01-703-1210",8.1,"WEEK 10 (T)",70,"2013-05-24","2013-05-24"],["CDISCPILOT01","SV","01-703-1210",9,"WEEK 12",84,"2013-06-07","2013-06-07"],["CDISCPILOT01","SV","01-703-1210",9.1,"WEEK 14 (T)",98,"2013-06-21","2013-06-21"],["CDISCPILOT01","SV","01-703-1210",10,"WEEK 16",112,"2013-07-05","2013-07-05"],["CDISCPILOT01","SV","01-703-1210",10.1,"WEEK 18 (T)",126,"2013-07-19","2013-07-19"],["CDISCPILOT01","SV","01-703-1210",11,"WEEK 20",140,"2013-07-27","2013-07-27"],["CDISCPILOT01","SV","01-703-1210",11.1,"WEEK 22 (T)",154,"2013-08-09","2013-08-09"],["CDISCPILOT01","SV","01-703-1210",12,"WEEK 24",168,"2013-08-24","2013-08-24"],["CDISCPILOT01","SV","01-703-1210",13,"WEEK 26",182,"2013-09-06","2013-09-06"],["CDISCPILOT01","SV","01-703-1258",1,"SCREENING 1",-7,"2012-07-10","2012-07-10"],["CDISCPILOT01","SV","01-703-1258",2,"SCREENING 2",-1,"2012-07-18","2012-07-18"],["CDISCPILOT01","SV","01-703-1258",3,"BASELINE",1,"2012-07-20","2012-07-20"],["CDISCPILOT01","SV","01-703-1258",3.5,"AMBUL ECG PLACEMENT",13,"2012-07-31","2012-07-31"],["CDISCPILOT01","SV","01-703-1258",4,"WEEK 2",14,"2012-08-01","2012-08-01"],["CDISCPILOT01","SV","01-703-1258",5,"WEEK 4",28,"2012-08-17","2012-08-17"],["CDISCPILOT01","SV","01-703-1258",6,"AMBUL ECG REMOVAL",30,"2012-08-19","2012-08-19"],["CDISCPILOT01","SV","01-703-1258",7,"WEEK 6",42,"2012-09-04","2012-09-04"],["CDISCPILOT01","SV","01-703-1258",8,"WEEK 8",56,"2012-09-14","2012-09-14"],["CDISCPILOT01","SV","01-703-1258",8.1,"WEEK 10 (T)",70,"2012-09-28","2012-09-28"],["CDISCPILOT01","SV","01-703-1258",9,"WEEK 12",84,"2012-10-09","2012-10-09"],["CDISCPILOT01","SV","01-703-1258",9.1,"WEEK 14 (T)",98,"2012-10-23","2012-10-23"],["CDISCPILOT01","SV","01-703-1258",10,"WEEK 16",112,"2012-11-05","2012-11-05"],["CDISCPILOT01","SV","01-703-1258",10.1,"WEEK 18 (T)",126,"2012-11-19","2012-11-19"],["CDISCPILOT01","SV","01-703-1258",11,"WEEK 20",140,"2012-12-03","2012-12-03"],["CDISCPILOT01","SV","01-703-1258",11.1,"WEEK 22 (T)",154,"2012-12-20","2012-12-20"],["CDISCPILOT01","SV","01-703-1258",12,"WEEK 24",168,"2012-12-31","2012-12-31"],["CDISCPILOT01","SV","01-703-1258",13,"WEEK 26",182,"2013-01-21","2013-01-21"],["CDISCPILOT01","SV","01-703-1258",101,"AE FOLLOW-UP",null,"2013-01-28","2013-01-28"],["CDISCPILOT01","SV","01-703-1279",1,"SCREENING 1",-7,"2013-04-27","2013-04-27"],["CDISCPILOT01","SV","01-703-1279",2,"SCREENING 2",-1,"2013-05-11","2013-05-11"],["CDISCPILOT01","SV","01-703-1279",3,"BASELINE",1,"2013-05-13","2013-05-13"],["CDISCPILOT01","SV","01-703-1279",4,"WEEK 2",14,"2013-06-22","2013-06-22"],["CDISCPILOT01","SV","01-703-1295",1,"SCREENING 1",-7,"2013-10-24","2013-10-24"],["CDISCPILOT01","SV","01-703-1295",1.1,"UNSCHEDULED 1.1",null,"2013-11-04","2013-11-04"],["CDISCPILOT01","SV","01-703-1295",2,"SCREENING 2",-1,"2013-11-19","2013-11-19"],["CDISCPILOT01","SV","01-703-1295",3,"BASELINE",1,"2013-11-21","2013-11-21"],["CDISCPILOT01","SV","01-703-1295",3.5,"AMBUL ECG PLACEMENT",13,"2013-12-04","2013-12-04"],["CDISCPILOT01","SV","01-703-1295",4,"WEEK 2",14,"2013-12-05","2013-12-05"],["CDISCPILOT01","SV","01-703-1295",5,"WEEK 4",28,"2013-12-18","2013-12-18"],["CDISCPILOT01","SV","01-703-1295",6,"AMBUL ECG REMOVAL",30,"2013-12-20","2013-12-20"],["CDISCPILOT01","SV","01-703-1295",7,"WEEK 6",42,"2014-01-01","2014-01-01"],["CDISCPILOT01","SV","01-703-1295",8,"WEEK 8",56,"2014-01-15","2014-01-15"],["CDISCPILOT01","SV","01-703-1295",8.1,"WEEK 10 (T)",70,"2014-01-29","2014-01-29"],["CDISCPILOT01","SV","01-703-1295",9,"WEEK 12",84,"2014-02-18","2014-02-18"],["CDISCPILOT01","SV","01-703-1295",9.1,"WEEK 14 (T)",98,"2014-03-04","2014-03-04"],["CDISCPILOT01","SV","01-703-1295",10,"WEEK 16",112,"2014-03-13","2014-03-13"],["CDISCPILOT01","SV","01-703-1295",11,"WEEK 20",140,"2014-05-19","2014-05-19"],["CDISCPILOT01","SV","01-703-1299",1,"SCREENING 1",-7,"2012-09-07","2012-09-07"],["CDISCPILOT01","SV","01-703-1299",2,"SCREENING 2",-1,"2012-09-10","2012-09-10"],["CDISCPILOT01","SV","01-703-1299",3,"BASELINE",1,"2012-09-12","2012-09-12"],["CDISCPILOT01","SV","01-703-1299",3.5,"AMBUL ECG PLACEMENT",13,"2012-09-27","2012-09-27"],["CDISCPILOT01","SV","01-703-1299",4,"WEEK 2",14,"2012-09-28","2012-09-28"],["CDISCPILOT01","SV","01-703-1299",5,"WEEK 4",28,"2012-10-10","2012-10-10"],["CDISCPILOT01","SV","01-703-1299",6,"AMBUL ECG REMOVAL",30,"2012-10-12","2012-10-12"],["CDISCPILOT01","SV","01-703-1299",7,"WEEK 6",42,"2012-10-24","2012-10-24"],["CDISCPILOT01","SV","01-703-1299",8,"WEEK 8",56,"2012-11-07","2012-11-07"],["CDISCPILOT01","SV","01-703-1299",8.1,"WEEK 10 (T)",70,"2012-11-21","2012-11-21"],["CDISCPILOT01","SV","01-703-1299",9,"WEEK 12",84,"2012-12-05","2012-12-05"],["CDISCPILOT01","SV","01-703-1299",9.1,"WEEK 14 (T)",98,"2012-12-19","2012-12-19"],["CDISCPILOT01","SV","01-703-1299",10,"WEEK 16",112,"2013-01-02","2013-01-02"],["CDISCPILOT01","SV","01-703-1299",10.1,"WEEK 18 (T)",126,"2013-01-16","2013-01-16"],["CDISCPILOT01","SV","01-703-1299",11,"WEEK 20",140,"2013-01-30","2013-01-30"],["CDISCPILOT01","SV","01-703-1299",11.1,"WEEK 22 (T)",154,"2013-02-13","2013-02-13"],["CDISCPILOT01","SV","01-703-1299",12,"WEEK 24",168,"2013-03-01","2013-03-01"],["CDISCPILOT01","SV","01-703-1299",13,"WEEK 26",182,"2013-03-13","2013-03-13"],["CDISCPILOT01","SV","01-703-1299",13.1,"UNSCHEDULED 13.1",null,"2013-03-27","2013-03-27"],["CDISCPILOT01","SV","01-703-1335",1,"SCREENING 1",-7,"2014-02-28","2014-02-28"],["CDISCPILOT01","SV","01-703-1335",1.1,"UNSCHEDULED 1.1",null,"2014-02-21","2014-02-21"],["CDISCPILOT01","SV","01-703-1335",2,"SCREENING 2",-1,"2014-03-15","2014-03-15"],["CDISCPILOT01","SV","01-703-1335",3,"BASELINE",1,"2014-03-17","2014-03-17"],["CDISCPILOT01","SV","01-703-1335",3.5,"AMBUL ECG PLACEMENT",13,"2014-03-30","2014-03-30"],["CDISCPILOT01","SV","01-703-1335",4,"WEEK 2",14,"2014-03-31","2014-03-31"],["CDISCPILOT01","SV","01-703-1335",5,"WEEK 4",28,"2014-04-13","2014-04-13"],["CDISCPILOT01","SV","01-703-1335",6,"AMBUL ECG REMOVAL",30,"2014-04-15","2014-04-15"],["CDISCPILOT01","SV","01-703-1335",7,"WEEK 6",42,"2014-05-24","2014-05-24"],["CDISCPILOT01","SV","01-703-1379",1,"SCREENING 1",-7,"2013-09-12","2013-09-12"],["CDISCPILOT01","SV","01-703-1379",2,"SCREENING 2",-1,"2013-09-20","2013-09-20"],["CDISCPILOT01","SV","01-703-1379",3,"BASELINE",1,"2013-09-22","2013-09-22"],["CDISCPILOT01","SV","01-703-1379",3.5,"AMBUL ECG PLACEMENT",13,"2013-10-06","2013-10-06"],["CDISCPILOT01","SV","01-703-1379",4,"WEEK 2",14,"2013-10-07","2013-10-07"],["CDISCPILOT01","SV","01-703-1379",5,"WEEK 4",28,"2013-10-19","2013-10-19"],["CDISCPILOT01","SV","01-703-1379",6,"AMBUL ECG REMOVAL",30,"2013-10-21","2013-10-21"],["CDISCPILOT01","SV","01-703-1379",7,"WEEK 6",42,"2013-11-08","2013-11-08"],["CDISCPILOT01","SV","01-703-1379",8,"WEEK 8",56,"2013-11-17","2013-11-17"],["CDISCPILOT01","SV","01-703-1379",8.1,"WEEK 10 (T)",70,"2013-12-01","2013-12-01"],["CDISCPILOT01","SV","01-703-1379",9,"WEEK 12",84,"2013-12-15","2013-12-15"],["CDISCPILOT01","SV","01-703-1379",9.1,"WEEK 14 (T)",98,"2013-12-29","2013-12-29"],["CDISCPILOT01","SV","01-703-1379",10,"WEEK 16",112,"2014-01-11","2014-01-11"],["CDISCPILOT01","SV","01-703-1379",10.1,"WEEK 18 (T)",126,"2014-01-25","2014-01-25"],["CDISCPILOT01","SV","01-703-1379",11,"WEEK 20",140,"2014-02-09","2014-02-09"],["CDISCPILOT01","SV","01-703-1379",11.1,"WEEK 22 (T)",154,"2014-02-23","2014-02-23"],["CDISCPILOT01","SV","01-703-1379",11.2,"UNSCHEDULED 11.2",null,"2014-02-23","2014-02-23"],["CDISCPILOT01","SV","01-703-1379",12,"WEEK 24",168,"2014-03-08","2014-03-08"],["CDISCPILOT01","SV","01-703-1379",13,"WEEK 26",182,"2014-03-21","2014-03-21"],["CDISCPILOT01","SV","01-703-1396",1,"SCREENING 1",-7,"2014-02-09","2014-02-09"],["CDISCPILOT01","SV","01-703-1403",1,"SCREENING 1",-7,"2012-12-05","2012-12-05"],["CDISCPILOT01","SV","01-703-1403",2,"SCREENING 2",-1,"2012-12-10","2012-12-10"],["CDISCPILOT01","SV","01-703-1403",3,"BASELINE",1,"2012-12-12","2012-12-12"],["CDISCPILOT01","SV","01-703-1403",4,"WEEK 2",14,"2012-12-19","2012-12-19"],["CDISCPILOT01","SV","01-703-1403",101,"AE FOLLOW-UP",null,"2013-01-08","2013-01-08"],["CDISCPILOT01","SV","01-703-1439",1,"SCREENING 1",-7,"2014-03-04","2014-03-04"],["CDISCPILOT01","SV","01-703-1439",2,"SCREENING 2",-1,"2014-03-10","2014-03-10"],["CDISCPILOT01","SV","01-703-1439",3,"BASELINE",1,"2014-03-12","2014-03-12"],["CDISCPILOT01","SV","01-703-1439",3.5,"AMBUL ECG PLACEMENT",13,"2014-03-25","2014-03-25"],["CDISCPILOT01","SV","01-703-1439",4,"WEEK 2",14,"2014-03-26","2014-03-26"],["CDISCPILOT01","SV","01-703-1439",5,"WEEK 4",28,"2014-04-08","2014-04-08"],["CDISCPILOT01","SV","01-703-1439",6,"AMBUL ECG REMOVAL",30,"2014-04-10","2014-04-10"],["CDISCPILOT01","SV","01-703-1439",7,"WEEK 6",42,"2014-04-21","2014-04-21"],["CDISCPILOT01","SV","01-703-1439",8,"WEEK 8",56,"2014-05-05","2014-05-05"],["CDISCPILOT01","SV","01-703-1439",8.1,"WEEK 10 (T)",70,"2014-05-19","2014-05-19"],["CDISCPILOT01","SV","01-703-1439",9,"WEEK 12",84,"2014-06-02","2014-06-02"],["CDISCPILOT01","SV","01-703-1439",9.1,"WEEK 14 (T)",98,"2014-06-16","2014-06-16"],["CDISCPILOT01","SV","01-703-1439",10,"WEEK 16",112,"2014-06-30","2014-06-30"],["CDISCPILOT01","SV","01-703-1439",10.1,"WEEK 18 (T)",126,"2014-07-16","2014-07-16"],["CDISCPILOT01","SV","01-703-1439",11,"WEEK 20",140,"2014-07-29","2014-07-29"],["CDISCPILOT01","SV","01-703-1439",11.1,"WEEK 22 (T)",154,"2014-08-06","2014-08-06"],["CDISCPILOT01","SV","01-703-1439",12,"WEEK 24",168,"2014-08-28","2014-08-28"],["CDISCPILOT01","SV","01-703-1439",13,"WEEK 26",182,"2014-09-11","2014-09-11"],["CDISCPILOT01","SV","01-704-1008",1,"SCREENING 1",-7,"2013-01-06","2013-01-06"],["CDISCPILOT01","SV","01-704-1008",1.1,"UNSCHEDULED 1.1",null,"2013-01-06","2013-01-06"],["CDISCPILOT01","SV","01-704-1008",2,"SCREENING 2",-1,"2013-01-11","2013-01-11"],["CDISCPILOT01","SV","01-704-1008",3,"BASELINE",1,"2013-01-13","2013-01-13"],["CDISCPILOT01","SV","01-704-1008",3.5,"AMBUL ECG PLACEMENT",13,"2013-01-27","2013-01-27"],["CDISCPILOT01","SV","01-704-1008",4,"WEEK 2",14,"2013-01-28","2013-01-28"],["CDISCPILOT01","SV","01-704-1008",5,"WEEK 4",28,"2013-02-09","2013-02-09"],["CDISCPILOT01","SV","01-704-1008",6,"AMBUL ECG REMOVAL",30,"2013-02-11","2013-02-11"],["CDISCPILOT01","SV","01-704-1008",7,"WEEK 6",42,"2013-02-25","2013-02-25"],["CDISCPILOT01","SV","01-704-1009",1,"SCREENING 1",-7,"2013-08-20","2013-08-20"],["CDISCPILOT01","SV","01-704-1009",2,"SCREENING 2",-1,"2013-08-24","2013-08-24"],["CDISCPILOT01","SV","01-704-1009",3,"BASELINE",1,"2013-08-27","2013-08-27"],["CDISCPILOT01","SV","01-704-1009",3.5,"AMBUL ECG PLACEMENT",13,"2013-09-13","2013-09-13"],["CDISCPILOT01","SV","01-704-1009",4,"WEEK 2",14,"2013-09-14","2013-09-14"],["CDISCPILOT01","SV","01-704-1009",5,"WEEK 4",28,"2013-10-02","2013-10-02"],["CDISCPILOT01","SV","01-704-1010",1,"SCREENING 1",-7,"2014-02-08","2014-02-08"],["CDISCPILOT01","SV","01-704-1010",2,"SCREENING 2",-1,"2014-02-19","2014-02-19"],["CDISCPILOT01","SV","01-704-1010",3,"BASELINE",1,"2014-02-21","2014-02-21"],["CDISCPILOT01","SV","01-704-1010",3.5,"AMBUL ECG PLACEMENT",13,"2014-03-07","2014-03-07"],["CDISCPILOT01","SV","01-704-1010",4,"WEEK 2",14,"2014-03-08","2014-03-08"],["CDISCPILOT01","SV","01-704-1010",5,"WEEK 4",28,"2014-03-23","2014-03-23"],["CDISCPILOT01","SV","01-704-1010",6,"AMBUL ECG REMOVAL",30,"2014-03-26","2014-03-26"],["CDISCPILOT01","SV","01-704-1010",7,"WEEK 6",42,"2014-04-11","2014-04-11"],["CDISCPILOT01","SV","01-704-1010",8,"WEEK 8",56,"2014-04-24","2014-04-24"],["CDISCPILOT01","SV","01-704-1010",8.1,"WEEK 10 (T)",70,"2014-05-08","2014-05-08"],["CDISCPILOT01","SV","01-704-1010",9,"WEEK 12",84,"2014-05-16","2014-05-16"],["CDISCPILOT01","SV","01-704-1010",9.1,"WEEK 14 (T)",98,"2014-05-30","2014-05-30"],["CDISCPILOT01","SV","01-704-1010",9.2,"UNSCHEDULED 9.2",null,"2014-05-30","2014-05-30"],["CDISCPILOT01","SV","01-704-1010",10,"WEEK 16",112,"2014-06-13","2014-06-13"],["CDISCPILOT01","SV","01-704-1010",10.1,"WEEK 18 (T)",126,"2014-06-27","2014-06-27"],["CDISCPILOT01","SV","01-704-1010",11,"WEEK 20",140,"2014-07-09","2014-07-09"],["CDISCPILOT01","SV","01-704-1017",1,"SCREENING 1",-7,"2013-09-20","2013-09-20"],["CDISCPILOT01","SV","01-704-1017",2,"SCREENING 2",-1,"2013-09-27","2013-09-27"],["CDISCPILOT01","SV","01-704-1017",3,"BASELINE",1,"2013-10-06","2013-10-06"],["CDISCPILOT01","SV","01-704-1017",3.5,"AMBUL ECG PLACEMENT",13,"2013-10-18","2013-10-18"],["CDISCPILOT01","SV","01-704-1017",4,"WEEK 2",14,"2013-10-19","2013-10-19"],["CDISCPILOT01","SV","01-704-1017",5,"WEEK 4",28,"2013-11-09","2013-11-09"],["CDISCPILOT01","SV","01-704-1017",6,"AMBUL ECG REMOVAL",30,"2013-11-11","2013-11-11"],["CDISCPILOT01","SV","01-704-1017",7,"WEEK 6",42,"2013-11-24","2013-11-24"],["CDISCPILOT01","SV","01-704-1017",101,"AE FOLLOW-UP",null,"2013-12-06","2013-12-06"],["CDISCPILOT01","SV","01-704-1025",1,"SCREENING 1",-7,"2013-09-18","2013-09-18"],["CDISCPILOT01","SV","01-704-1025",2,"SCREENING 2",-1,"2013-09-25","2013-09-25"],["CDISCPILOT01","SV","01-704-1025",3,"BASELINE",1,"2013-09-27","2013-09-27"],["CDISCPILOT01","SV","01-704-1025",3.5,"AMBUL ECG PLACEMENT",13,"2013-10-10","2013-10-10"],["CDISCPILOT01","SV","01-704-1025",4,"WEEK 2",14,"2013-10-11","2013-10-11"],["CDISCPILOT01","SV","01-704-1025",5,"WEEK 4",28,"2013-10-25","2013-10-25"],["CDISCPILOT01","SV","01-704-1025",5.1,"UNSCHEDULED 5.1",null,"2013-10-28","2013-10-28"],["CDISCPILOT01","SV","01-704-1025",6,"AMBUL ECG REMOVAL",30,"2013-11-29","2013-11-29"],["CDISCPILOT01","SV","01-704-1065",1,"SCREENING 1",-7,"2013-10-17","2013-10-17"],["CDISCPILOT01","SV","01-704-1065",2,"SCREENING 2",-1,"2013-10-22","2013-10-22"],["CDISCPILOT01","SV","01-704-1065",3,"BASELINE",1,"2013-10-24","2013-10-24"],["CDISCPILOT01","SV","01-704-1065",3.5,"AMBUL ECG PLACEMENT",13,"2013-11-06","2013-11-06"],["CDISCPILOT01","SV","01-704-1065",4,"WEEK 2",14,"2013-11-07","2013-11-07"],["CDISCPILOT01","SV","01-704-1065",5,"WEEK 4",28,"2013-11-25","2013-11-25"],["CDISCPILOT01","SV","01-704-1065",6,"AMBUL ECG REMOVAL",30,"2013-11-27","2013-11-27"],["CDISCPILOT01","SV","01-704-1065",7,"WEEK 6",42,"2013-12-06","2013-12-06"],["CDISCPILOT01","SV","01-704-1065",8,"WEEK 8",56,"2013-12-20","2013-12-20"],["CDISCPILOT01","SV","01-704-1065",9,"WEEK 12",84,"2013-12-24","2013-12-24"],["CDISCPILOT01","SV","01-704-1065",101,"AE FOLLOW-UP",null,"2014-02-17","2014-02-17"],["CDISCPILOT01","SV","01-704-1074",1,"SCREENING 1",-7,"2014-01-19","2014-01-19"],["CDISCPILOT01","SV","01-704-1074",2,"SCREENING 2",-1,"2014-01-20","2014-01-20"],["CDISCPILOT01","SV","01-704-1074",3,"BASELINE",1,"2014-01-22","2014-01-22"],["CDISCPILOT01","SV","01-704-1074",3.5,"AMBUL ECG PLACEMENT",13,"2014-02-08","2014-02-08"],["CDISCPILOT01","SV","01-704-1074",4,"WEEK 2",14,"2014-02-09","2014-02-09"],["CDISCPILOT01","SV","01-704-1074",5,"WEEK 4",28,"2014-02-22","2014-02-22"],["CDISCPILOT01","SV","01-704-1074",6,"AMBUL ECG REMOVAL",30,"2014-02-24","2014-02-24"],["CDISCPILOT01","SV","01-704-1074",7,"WEEK 6",42,"2014-03-09","2014-03-09"],["CDISCPILOT01","SV","01-704-1074",8,"WEEK 8",56,"2014-03-31","2014-03-31"],["CDISCPILOT01","SV","01-704-1093",1,"SCREENING 1",-7,"2013-02-22","2013-02-22"],["CDISCPILOT01","SV","01-704-1093",1.1,"UNSCHEDULED 1.1",null,"2013-02-22","2013-02-22"],["CDISCPILOT01","SV","01-704-1093",1.2,"UNSCHEDULED 1.2",null,"2013-03-02","2013-03-02"],["CDISCPILOT01","SV","01-704-1093",2,"SCREENING 2",-1,"2013-03-13","2013-03-13"],["CDISCPILOT01","SV","01-704-1093",3,"BASELINE",1,"2013-03-15","2013-03-15"],["CDISCPILOT01","SV","01-704-1093",3.5,"AMBUL ECG PLACEMENT",13,"2013-03-29","2013-03-29"],["CDISCPILOT01","SV","01-704-1093",4,"WEEK 2",14,"2013-03-30","2013-03-30"],["CDISCPILOT01","SV","01-704-1093",5,"WEEK 4",28,"2013-04-12","2013-04-12"],["CDISCPILOT01","SV","01-704-1093",6,"AMBUL ECG REMOVAL",30,"2013-04-17","2013-04-17"],["CDISCPILOT01","SV","01-704-1093",7,"WEEK 6",42,"2013-04-25","2013-04-25"],["CDISCPILOT01","SV","01-704-1093",8,"WEEK 8",56,"2013-05-11","2013-05-11"],["CDISCPILOT01","SV","01-704-1093",8.1,"WEEK 10 (T)",70,"2013-05-23","2013-05-23"],["CDISCPILOT01","SV","01-704-1093",9,"WEEK 12",84,"2013-06-07","2013-06-07"],["CDISCPILOT01","SV","01-704-1093",10,"WEEK 16",112,"2013-06-20","2013-06-20"],["CDISCPILOT01","SV","01-704-1093",101,"AE FOLLOW-UP",null,"2013-07-26","2013-07-26"],["CDISCPILOT01","SV","01-704-1093",201,"RETRIEVAL",168,"2013-12-25","2013-12-25"],["CDISCPILOT01","SV","01-704-1114",1,"SCREENING 1",-7,"2013-01-09","2013-01-09"],["CDISCPILOT01","SV","01-704-1114",2,"SCREENING 2",-1,"2013-01-21","2013-01-21"],["CDISCPILOT01","SV","01-704-1114",3,"BASELINE",1,"2013-01-23","2013-01-23"],["CDISCPILOT01","SV","01-704-1114",3.5,"AMBUL ECG PLACEMENT",13,"2013-02-02","2013-02-02"],["CDISCPILOT01","SV","01-704-1114",4,"WEEK 2",14,"2013-02-03","2013-02-03"],["CDISCPILOT01","SV","01-704-1114",5,"WEEK 4",28,"2013-02-18","2013-02-18"],["CDISCPILOT01","SV","01-704-1114",6,"AMBUL ECG REMOVAL",30,"2013-02-20","2013-02-20"],["CDISCPILOT01","SV","01-704-1114",7,"WEEK 6",42,"2013-03-13","2013-03-13"],["CDISCPILOT01","SV","01-704-1114",8,"WEEK 8",56,"2013-03-26","2013-03-26"],["CDISCPILOT01","SV","01-704-1114",8.1,"WEEK 10 (T)",70,"2013-04-03","2013-04-03"],["CDISCPILOT01","SV","01-704-1114",9,"WEEK 12",84,"2013-04-17","2013-04-17"],["CDISCPILOT01","SV","01-704-1114",9.1,"WEEK 14 (T)",98,"2013-04-29","2013-04-29"],["CDISCPILOT01","SV","01-704-1114",10,"WEEK 16",112,"2013-05-14","2013-05-14"],["CDISCPILOT01","SV","01-704-1114",10.1,"WEEK 18 (T)",126,"2013-05-28","2013-05-28"],["CDISCPILOT01","SV","01-704-1114",11,"WEEK 20",140,"2013-06-16","2013-06-16"],["CDISCPILOT01","SV","01-704-1114",12,"WEEK 24",168,"2013-07-08","2013-07-08"],["CDISCPILOT01","SV","01-704-1120",1,"SCREENING 1",-7,"2013-11-18","2013-11-18"],["CDISCPILOT01","SV","01-704-1120",2,"SCREENING 2",-1,"2013-11-30","2013-11-30"],["CDISCPILOT01","SV","01-704-1120",3,"BASELINE",1,"2013-12-02","2013-12-02"],["CDISCPILOT01","SV","01-704-1120",3.5,"AMBUL ECG PLACEMENT",13,"2013-12-14","2013-12-14"],["CDISCPILOT01","SV","01-704-1120",4,"WEEK 2",14,"2013-12-15","2013-12-15"],["CDISCPILOT01","SV","01-704-1120",5,"WEEK 4",28,"2013-12-29","2013-12-29"],["CDISCPILOT01","SV","01-704-1120",6,"AMBUL ECG REMOVAL",30,"2013-12-31","2013-12-31"],["CDISCPILOT01","SV","01-704-1120",7,"WEEK 6",42,"2014-01-13","2014-01-13"],["CDISCPILOT01","SV","01-704-1120",8,"WEEK 8",56,"2014-01-27","2014-01-27"],["CDISCPILOT01","SV","01-704-1120",9,"WEEK 12",84,"2014-02-03","2014-02-03"],["CDISCPILOT01","SV","01-704-1120",101,"AE FOLLOW-UP",null,"2014-03-10","2014-03-10"],["CDISCPILOT01","SV","01-704-1127",1,"SCREENING 1",-7,"2013-09-16","2013-09-16"],["CDISCPILOT01","SV","01-704-1127",2,"SCREENING 2",-1,"2013-09-30","2013-09-30"],["CDISCPILOT01","SV","01-704-1127",3,"BASELINE",1,"2013-10-02","2013-10-02"],["CDISCPILOT01","SV","01-704-1127",3.5,"AMBUL ECG PLACEMENT",13,"2013-10-15","2013-10-15"],["CDISCPILOT01","SV","01-704-1127",4,"WEEK 2",14,"2013-10-16","2013-10-16"],["CDISCPILOT01","SV","01-704-1127",5,"WEEK 4",28,"2013-10-30","2013-10-30"],["CDISCPILOT01","SV","01-704-1127",6,"AMBUL ECG REMOVAL",30,"2013-11-03","2013-11-03"],["CDISCPILOT01","SV","01-704-1127",7,"WEEK 6",42,"2013-11-13","2013-11-13"],["CDISCPILOT01","SV","01-704-1127",8,"WEEK 8",56,"2013-11-26","2013-11-26"],["CDISCPILOT01","SV","01-704-1127",8.1,"WEEK 10 (T)",70,"2013-12-10","2013-12-10"],["CDISCPILOT01","SV","01-704-1127",9,"WEEK 12",84,"2013-12-25","2013-12-25"],["CDISCPILOT01","SV","01-704-1127",9.1,"WEEK 14 (T)",98,"2014-01-08","2014-01-08"],["CDISCPILOT01","SV","01-704-1127",10,"WEEK 16",112,"2014-01-21","2014-01-21"],["CDISCPILOT01","SV","01-704-1127",10.1,"WEEK 18 (T)",126,"2014-02-05","2014-02-05"],["CDISCPILOT01","SV","01-704-1127",11,"WEEK 20",140,"2014-02-17","2014-02-17"],["CDISCPILOT01","SV","01-704-1127",11.1,"WEEK 22 (T)",154,"2014-03-05","2014-03-05"],["CDISCPILOT01","SV","01-704-1127",12,"WEEK 24",168,"2014-03-17","2014-03-17"],["CDISCPILOT01","SV","01-704-1127",13,"WEEK 26",182,"2014-03-31","2014-03-31"],["CDISCPILOT01","SV","01-704-1135",1,"SCREENING 1",-7,"2013-10-23","2013-10-23"],["CDISCPILOT01","SV","01-704-1135",2,"SCREENING 2",-1,"2013-10-29","2013-10-29"],["CDISCPILOT01","SV","01-704-1135",3,"BASELINE",1,"2013-10-31","2013-10-31"],["CDISCPILOT01","SV","01-704-1135",3.5,"AMBUL ECG PLACEMENT",13,"2013-11-13","2013-11-13"],["CDISCPILOT01","SV","01-704-1135",4,"WEEK 2",14,"2013-11-14","2013-11-14"],["CDISCPILOT01","SV","01-704-1135",5,"WEEK 4",28,"2013-11-26","2013-11-26"],["CDISCPILOT01","SV","01-704-1135",6,"AMBUL ECG REMOVAL",30,"2013-11-28","2013-11-28"],["CDISCPILOT01","SV","01-704-1135",7,"WEEK 6",42,"2013-12-11","2013-12-11"],["CDISCPILOT01","SV","01-704-1135",8,"WEEK 8",56,"2013-12-25","2013-12-25"],["CDISCPILOT01","SV","01-704-1135",8.1,"WEEK 10 (T)",70,"2014-01-09","2014-01-09"],["CDISCPILOT01","SV","01-704-1135",9,"WEEK 12",84,"2014-01-22","2014-01-22"],["CDISCPILOT01","SV","01-704-1135",9.1,"WEEK 14 (T)",98,"2014-01-23","2014-01-23"],["CDISCPILOT01","SV","01-704-1135",10,"WEEK 16",112,"2014-02-19","2014-02-19"],["CDISCPILOT01","SV","01-704-1135",10.1,"WEEK 18 (T)",126,"2014-03-08","2014-03-08"],["CDISCPILOT01","SV","01-704-1135",11,"WEEK 20",140,"2014-03-26","2014-03-26"],["CDISCPILOT01","SV","01-704-1135",11.1,"WEEK 22 (T)",154,"2014-04-03","2014-04-03"],["CDISCPILOT01","SV","01-704-1135",12,"WEEK 24",168,"2014-05-01","2014-05-01"],["CDISCPILOT01","SV","01-704-1135",13,"WEEK 26",182,"2014-05-16","2014-05-16"],["CDISCPILOT01","SV","01-704-1164",1,"SCREENING 1",-7,"2012-09-11","2012-09-11"],["CDISCPILOT01","SV","01-704-1164",2,"SCREENING 2",-1,"2012-09-16","2012-09-16"],["CDISCPILOT01","SV","01-704-1164",3,"BASELINE",1,"2012-09-19","2012-09-19"],["CDISCPILOT01","SV","01-704-1164",3.5,"AMBUL ECG PLACEMENT",13,"2012-10-03","2012-10-03"],["CDISCPILOT01","SV","01-704-1164",4,"WEEK 2",14,"2012-10-04","2012-10-04"],["CDISCPILOT01","SV","01-704-1164",5,"WEEK 4",28,"2012-10-21","2012-10-21"],["CDISCPILOT01","SV","01-704-1164",6,"AMBUL ECG REMOVAL",30,"2012-10-23","2012-10-23"],["CDISCPILOT01","SV","01-704-1164",7,"WEEK 6",42,"2012-11-01","2012-11-01"],["CDISCPILOT01","SV","01-704-1164",8,"WEEK 8",56,"2012-11-15","2012-11-15"],["CDISCPILOT01","SV","01-704-1164",8.1,"WEEK 10 (T)",70,"2012-11-28","2012-11-28"],["CDISCPILOT01","SV","01-704-1164",9,"WEEK 12",84,"2012-12-16","2012-12-16"],["CDISCPILOT01","SV","01-704-1164",9.1,"WEEK 14 (T)",98,"2012-12-26","2012-12-26"],["CDISCPILOT01","SV","01-704-1164",10,"WEEK 16",112,"2013-01-14","2013-01-14"],["CDISCPILOT01","SV","01-704-1164",10.1,"WEEK 18 (T)",126,"2013-01-23","2013-01-23"],["CDISCPILOT01","SV","01-704-1164",11,"WEEK 20",140,"2013-02-14","2013-02-14"],["CDISCPILOT01","SV","01-704-1164",11.1,"WEEK 22 (T)",154,"2013-02-20","2013-02-20"],["CDISCPILOT01","SV","01-704-1164",12,"WEEK 24",168,"2013-03-17","2013-03-17"],["CDISCPILOT01","SV","01-704-1164",13,"WEEK 26",182,"2013-04-04","2013-04-04"],["CDISCPILOT01","SV","01-704-1218",1,"SCREENING 1",-7,"2012-11-11","2012-11-11"],["CDISCPILOT01","SV","01-704-1218",1.1,"UNSCHEDULED 1.1",null,"2012-10-11","2012-10-11"],["CDISCPILOT01","SV","01-704-1218",1.2,"UNSCHEDULED 1.2",null,"2012-11-11","2012-11-11"],["CDISCPILOT01","SV","01-704-1218",2,"SCREENING 2",-1,"2012-11-17","2012-11-17"],["CDISCPILOT01","SV","01-704-1218",3,"BASELINE",1,"2012-11-19","2012-11-19"],["CDISCPILOT01","SV","01-704-1218",3.5,"AMBUL ECG PLACEMENT",13,"2012-12-02","2012-12-02"],["CDISCPILOT01","SV","01-704-1218",4,"WEEK 2",14,"2012-12-03","2012-12-03"],["CDISCPILOT01","SV","01-704-1218",5,"WEEK 4",28,"2012-12-15","2012-12-15"],["CDISCPILOT01","SV","01-704-1218",6,"AMBUL ECG REMOVAL",30,"2012-12-17","2012-12-17"],["CDISCPILOT01","SV","01-704-1218",7,"WEEK 6",42,"2012-12-30","2012-12-30"],["CDISCPILOT01","SV","01-704-1218",8,"WEEK 8",56,"2013-01-14","2013-01-14"],["CDISCPILOT01","SV","01-704-1218",8.1,"WEEK 10 (T)",70,"2013-01-25","2013-01-25"],["CDISCPILOT01","SV","01-704-1218",9,"WEEK 12",84,"2013-02-11","2013-02-11"],["CDISCPILOT01","SV","01-704-1218",9.1,"WEEK 14 (T)",98,"2013-02-27","2013-02-27"],["CDISCPILOT01","SV","01-704-1218",10,"WEEK 16",112,"2013-03-18","2013-03-18"],["CDISCPILOT01","SV","01-704-1218",10.1,"WEEK 18 (T)",126,"2013-03-28","2013-03-28"],["CDISCPILOT01","SV","01-704-1218",11,"WEEK 20",140,"2013-04-14","2013-04-14"],["CDISCPILOT01","SV","01-704-1218",11.1,"WEEK 22 (T)",154,"2013-04-22","2013-04-22"],["CDISCPILOT01","SV","01-704-1218",12,"WEEK 24",168,"2013-05-13","2013-05-13"],["CDISCPILOT01","SV","01-704-1218",13,"WEEK 26",182,"2013-05-27","2013-05-27"],["CDISCPILOT01","SV","01-704-1233",1,"SCREENING 1",-7,"2013-03-08","2013-03-08"],["CDISCPILOT01","SV","01-704-1233",2,"SCREENING 2",-1,"2013-03-19","2013-03-19"],["CDISCPILOT01","SV","01-704-1233",3,"BASELINE",1,"2013-03-21","2013-03-21"],["CDISCPILOT01","SV","01-704-1233",3.5,"AMBUL ECG PLACEMENT",13,"2013-04-03","2013-04-03"],["CDISCPILOT01","SV","01-704-1233",4,"WEEK 2",14,"2013-04-04","2013-04-04"],["CDISCPILOT01","SV","01-704-1233",5,"WEEK 4",28,"2013-04-16","2013-04-16"],["CDISCPILOT01","SV","01-704-1233",6,"AMBUL ECG REMOVAL",30,"2013-04-18","2013-04-18"],["CDISCPILOT01","SV","01-704-1233",7,"WEEK 6",42,"2013-05-01","2013-05-01"],["CDISCPILOT01","SV","01-704-1233",8,"WEEK 8",56,"2013-05-16","2013-05-16"],["CDISCPILOT01","SV","01-704-1233",8.1,"WEEK 10 (T)",70,"2013-05-30","2013-05-30"],["CDISCPILOT01","SV","01-704-1233",9,"WEEK 12",84,"2013-06-13","2013-06-13"],["CDISCPILOT01","SV","01-704-1233",9.1,"WEEK 14 (T)",98,"2013-06-27","2013-06-27"],["CDISCPILOT01","SV","01-704-1233",10,"WEEK 16",112,"2013-07-11","2013-07-11"],["CDISCPILOT01","SV","01-704-1233",11,"WEEK 20",140,"2013-07-14","2013-07-14"],["CDISCPILOT01","SV","01-704-1241",1,"SCREENING 1",-7,"2013-08-14","2013-08-14"],["CDISCPILOT01","SV","01-704-1241",2,"SCREENING 2",-1,"2013-08-23","2013-08-23"],["CDISCPILOT01","SV","01-704-1241",3,"BASELINE",1,"2013-08-25","2013-08-25"],["CDISCPILOT01","SV","01-704-1241",3.5,"AMBUL ECG PLACEMENT",13,"2013-09-04","2013-09-04"],["CDISCPILOT01","SV","01-704-1241",4,"WEEK 2",14,"2013-09-05","2013-09-05"],["CDISCPILOT01","SV","01-704-1241",5,"WEEK 4",28,"2013-09-19","2013-09-19"],["CDISCPILOT01","SV","01-704-1241",6,"AMBUL ECG REMOVAL",30,"2013-09-21","2013-09-21"],["CDISCPILOT01","SV","01-704-1241",7,"WEEK 6",42,"2013-10-09","2013-10-09"],["CDISCPILOT01","SV","01-704-1241",8,"WEEK 8",56,"2013-10-31","2013-10-31"],["CDISCPILOT01","SV","01-704-1241",101,"AE FOLLOW-UP",null,"2014-01-22","2014-01-22"],["CDISCPILOT01","SV","01-704-1260",1,"SCREENING 1",-7,"2012-08-23","2012-08-23"],["CDISCPILOT01","SV","01-704-1260",2,"SCREENING 2",-1,"2012-08-26","2012-08-26"],["CDISCPILOT01","SV","01-704-1260",3,"BASELINE",1,"2012-08-30","2012-08-30"],["CDISCPILOT01","SV","01-704-1260",3.5,"AMBUL ECG PLACEMENT",13,"2012-09-12","2012-09-12"],["CDISCPILOT01","SV","01-704-1260",4,"WEEK 2",14,"2012-09-13","2012-09-13"],["CDISCPILOT01","SV","01-704-1260",5,"WEEK 4",28,"2012-09-26","2012-09-26"],["CDISCPILOT01","SV","01-704-1260",6,"AMBUL ECG REMOVAL",30,"2012-09-28","2012-09-28"],["CDISCPILOT01","SV","01-704-1260",7,"WEEK 6",42,"2012-10-11","2012-10-11"],["CDISCPILOT01","SV","01-704-1260",8,"WEEK 8",56,"2012-10-24","2012-10-24"],["CDISCPILOT01","SV","01-704-1260",9,"WEEK 12",84,"2013-01-18","2013-01-18"],["CDISCPILOT01","SV","01-704-1266",1,"SCREENING 1",-7,"2013-10-05","2013-10-05"],["CDISCPILOT01","SV","01-704-1266",2,"SCREENING 2",-1,"2013-10-11","2013-10-11"],["CDISCPILOT01","SV","01-704-1266",3,"BASELINE",1,"2013-10-13","2013-10-13"],["CDISCPILOT01","SV","01-704-1266",3.5,"AMBUL ECG PLACEMENT",13,"2013-10-26","2013-10-26"],["CDISCPILOT01","SV","01-704-1266",4,"WEEK 2",14,"2013-10-27","2013-10-27"],["CDISCPILOT01","SV","01-704-1266",5,"WEEK 4",28,"2013-11-08","2013-11-08"],["CDISCPILOT01","SV","01-704-1266",6,"AMBUL ECG REMOVAL",30,"2013-11-10","2013-11-10"],["CDISCPILOT01","SV","01-704-1266",7,"WEEK 6",42,"2013-11-22","2013-11-22"],["CDISCPILOT01","SV","01-704-1266",8,"WEEK 8",56,"2013-12-06","2013-12-06"],["CDISCPILOT01","SV","01-704-1266",101,"AE FOLLOW-UP",null,"2014-01-03","2014-01-03"],["CDISCPILOT01","SV","01-704-1323",1,"SCREENING 1",-7,"2013-06-13","2013-06-13"],["CDISCPILOT01","SV","01-704-1323",2,"SCREENING 2",-1,"2013-07-07","2013-07-07"],["CDISCPILOT01","SV","01-704-1323",3,"BASELINE",1,"2013-07-08","2013-07-08"],["CDISCPILOT01","SV","01-704-1323",3.5,"AMBUL ECG PLACEMENT",13,"2013-07-21","2013-07-21"],["CDISCPILOT01","SV","01-704-1323",4,"WEEK 2",14,"2013-07-23","2013-07-23"],["CDISCPILOT01","SV","01-704-1323",5,"WEEK 4",28,"2013-08-04","2013-08-04"],["CDISCPILOT01","SV","01-704-1323",6,"AMBUL ECG REMOVAL",30,"2013-08-06","2013-08-06"],["CDISCPILOT01","SV","01-704-1323",7,"WEEK 6",42,"2013-08-08","2013-08-08"],["CDISCPILOT01","SV","01-704-1323",101,"AE FOLLOW-UP",null,"2013-10-01","2013-10-01"],["CDISCPILOT01","SV","01-704-1325",1,"SCREENING 1",-7,"2014-04-16","2014-04-16"],["CDISCPILOT01","SV","01-704-1325",2,"SCREENING 2",-1,"2014-04-21","2014-04-21"],["CDISCPILOT01","SV","01-704-1325",3,"BASELINE",1,"2014-04-23","2014-04-23"],["CDISCPILOT01","SV","01-704-1325",3.5,"AMBUL ECG PLACEMENT",13,"2014-05-06","2014-05-06"],["CDISCPILOT01","SV","01-704-1325",4,"WEEK 2",14,"2014-05-07","2014-05-07"],["CDISCPILOT01","SV","01-704-1325",5,"WEEK 4",28,"2014-05-19","2014-05-19"],["CDISCPILOT01","SV","01-704-1325",6,"AMBUL ECG REMOVAL",30,"2014-05-21","2014-05-21"],["CDISCPILOT01","SV","01-704-1325",7,"WEEK 6",42,"2014-06-04","2014-06-04"],["CDISCPILOT01","SV","01-704-1325",8,"WEEK 8",56,"2014-06-18","2014-06-18"],["CDISCPILOT01","SV","01-704-1325",8.1,"WEEK 10 (T)",70,"2014-07-02","2014-07-02"],["CDISCPILOT01","SV","01-704-1325",9,"WEEK 12",84,"2014-07-16","2014-07-16"],["CDISCPILOT01","SV","01-704-1325",10,"WEEK 16",112,"2014-08-06","2014-08-06"],["CDISCPILOT01","SV","01-704-1332",1,"SCREENING 1",-7,"2013-11-24","2013-11-24"],["CDISCPILOT01","SV","01-704-1332",2,"SCREENING 2",-1,"2013-12-07","2013-12-07"],["CDISCPILOT01","SV","01-704-1332",3,"BASELINE",1,"2013-12-09","2013-12-09"],["CDISCPILOT01","SV","01-704-1332",3.5,"AMBUL ECG PLACEMENT",13,"2013-12-22","2013-12-22"],["CDISCPILOT01","SV","01-704-1332",4,"WEEK 2",14,"2013-12-23","2013-12-23"],["CDISCPILOT01","SV","01-704-1332",5,"WEEK 4",28,"2014-01-04","2014-01-04"],["CDISCPILOT01","SV","01-704-1332",6,"AMBUL ECG REMOVAL",30,"2014-01-06","2014-01-06"],["CDISCPILOT01","SV","01-704-1332",7,"WEEK 6",42,"2014-01-20","2014-01-20"],["CDISCPILOT01","SV","01-704-1332",8,"WEEK 8",56,"2014-02-03","2014-02-03"],["CDISCPILOT01","SV","01-704-1332",9,"WEEK 12",84,"2014-02-16","2014-02-16"],["CDISCPILOT01","SV","01-704-1332",101,"AE FOLLOW-UP",null,"2014-02-24","2014-02-24"],["CDISCPILOT01","SV","01-704-1351",1,"SCREENING 1",-7,"2013-09-26","2013-09-26"],["CDISCPILOT01","SV","01-704-1351",1.1,"UNSCHEDULED 1.1",null,"2013-10-03","2013-10-03"],["CDISCPILOT01","SV","01-704-1351",2,"SCREENING 2",-1,"2013-10-10","2013-10-10"],["CDISCPILOT01","SV","01-704-1351",3,"BASELINE",1,"2013-10-12","2013-10-12"],["CDISCPILOT01","SV","01-704-1351",4,"WEEK 2",14,"2013-10-26","2013-10-26"],["CDISCPILOT01","SV","01-704-1351",5,"WEEK 4",28,"2013-11-07","2013-11-07"],["CDISCPILOT01","SV","01-704-1351",5.1,"UNSCHEDULED 5.1",null,"2013-11-09","2013-11-09"],["CDISCPILOT01","SV","01-704-1351",6,"AMBUL ECG REMOVAL",30,"2013-11-09","2013-11-09"],["CDISCPILOT01","SV","01-704-1351",7,"WEEK 6",42,"2013-11-16","2013-11-16"],["CDISCPILOT01","SV","01-704-1351",8,"WEEK 8",56,"2013-12-02","2013-12-02"],["CDISCPILOT01","SV","01-704-1351",8.1,"WEEK 10 (T)",70,"2013-12-14","2013-12-14"],["CDISCPILOT01","SV","01-704-1351",9,"WEEK 12",84,"2013-12-28","2013-12-28"],["CDISCPILOT01","SV","01-704-1351",9.1,"WEEK 14 (T)",98,"2014-01-11","2014-01-11"],["CDISCPILOT01","SV","01-704-1351",10,"WEEK 16",112,"2014-01-26","2014-01-26"],["CDISCPILOT01","SV","01-704-1351",10.1,"WEEK 18 (T)",126,"2014-02-08","2014-02-08"],["CDISCPILOT01","SV","01-704-1351",11,"WEEK 20",140,"2014-03-01","2014-03-01"],["CDISCPILOT01","SV","01-704-1351",11.1,"WEEK 22 (T)",154,"2014-03-15","2014-03-15"],["CDISCPILOT01","SV","01-704-1351",12,"WEEK 24",168,"2014-04-04","2014-04-04"],["CDISCPILOT01","SV","01-704-1351",13,"WEEK 26",182,"2014-04-18","2014-04-18"],["CDISCPILOT01","SV","01-704-1388",1,"SCREENING 1",-7,"2012-11-28","2012-11-28"],["CDISCPILOT01","SV","01-704-1388",2,"SCREENING 2",-1,"2012-12-05","2012-12-05"],["CDISCPILOT01","SV","01-704-1388",3,"BASELINE",1,"2012-12-07","2012-12-07"],["CDISCPILOT01","SV","01-704-1388",3.5,"AMBUL ECG PLACEMENT",13,"2012-12-20","2012-12-20"],["CDISCPILOT01","SV","01-704-1388",4,"WEEK 2",14,"2012-12-21","2012-12-21"],["CDISCPILOT01","SV","01-704-1388",5,"WEEK 4",28,"2013-01-02","2013-01-02"],["CDISCPILOT01","SV","01-704-1388",6,"AMBUL ECG REMOVAL",30,"2013-01-04","2013-01-04"],["CDISCPILOT01","SV","01-704-1388",7,"WEEK 6",42,"2013-01-18","2013-01-18"],["CDISCPILOT01","SV","01-704-1388",8,"WEEK 8",56,"2013-01-30","2013-01-30"],["CDISCPILOT01","SV","01-704-1388",8.1,"WEEK 10 (T)",70,"2013-02-16","2013-02-16"],["CDISCPILOT01","SV","01-704-1388",9,"WEEK 12",84,"2013-02-27","2013-02-27"],["CDISCPILOT01","SV","01-704-1388",9.1,"WEEK 14 (T)",98,"2013-03-15","2013-03-15"],["CDISCPILOT01","SV","01-704-1388",10,"WEEK 16",112,"2013-03-27","2013-03-27"],["CDISCPILOT01","SV","01-704-1388",10.1,"WEEK 18 (T)",126,"2013-04-12","2013-04-12"],["CDISCPILOT01","SV","01-704-1388",11,"WEEK 20",140,"2013-04-28","2013-04-28"],["CDISCPILOT01","SV","01-704-1388",11.1,"WEEK 22 (T)",154,"2013-05-12","2013-05-12"],["CDISCPILOT01","SV","01-704-1388",12,"WEEK 24",168,"2013-05-23","2013-05-23"],["CDISCPILOT01","SV","01-704-1388",13,"WEEK 26",182,"2013-06-19","2013-06-19"],["CDISCPILOT01","SV","01-704-1435",1,"SCREENING 1",-7,"2012-11-01","2012-11-01"],["CDISCPILOT01","SV","01-704-1435",2,"SCREENING 2",-1,"2012-11-15","2012-11-15"],["CDISCPILOT01","SV","01-704-1435",3,"BASELINE",1,"2012-11-17","2012-11-17"],["CDISCPILOT01","SV","01-704-1435",3.5,"AMBUL ECG PLACEMENT",13,"2012-11-30","2012-11-30"],["CDISCPILOT01","SV","01-704-1435",4,"WEEK 2",14,"2012-12-01","2012-12-01"],["CDISCPILOT01","SV","01-704-1435",5,"WEEK 4",28,"2012-12-15","2012-12-15"],["CDISCPILOT01","SV","01-704-1435",6,"AMBUL ECG REMOVAL",30,"2012-12-17","2012-12-17"],["CDISCPILOT01","SV","01-704-1435",7,"WEEK 6",42,"2012-12-30","2012-12-30"],["CDISCPILOT01","SV","01-704-1435",8,"WEEK 8",56,"2013-01-12","2013-01-12"],["CDISCPILOT01","SV","01-704-1445",1,"SCREENING 1",-7,"2014-05-01","2014-05-01"],["CDISCPILOT01","SV","01-704-1445",1.1,"UNSCHEDULED 1.1",null,"2014-05-03","2014-05-03"],["CDISCPILOT01","SV","01-704-1445",2,"SCREENING 2",-1,"2014-05-09","2014-05-09"],["CDISCPILOT01","SV","01-704-1445",3,"BASELINE",1,"2014-05-11","2014-05-11"],["CDISCPILOT01","SV","01-704-1445",3.5,"AMBUL ECG PLACEMENT",13,"2014-05-24","2014-05-24"],["CDISCPILOT01","SV","01-704-1445",4,"WEEK 2",14,"2014-05-25","2014-05-25"],["CDISCPILOT01","SV","01-704-1445",5,"WEEK 4",28,"2014-06-11","2014-06-11"],["CDISCPILOT01","SV","01-704-1445",6,"AMBUL ECG REMOVAL",30,"2014-06-13","2014-06-13"],["CDISCPILOT01","SV","01-704-1445",7,"WEEK 6",42,"2014-06-25","2014-06-25"],["CDISCPILOT01","SV","01-704-1445",8,"WEEK 8",56,"2014-07-09","2014-07-09"],["CDISCPILOT01","SV","01-704-1445",8.1,"WEEK 10 (T)",70,"2014-07-27","2014-07-27"],["CDISCPILOT01","SV","01-704-1445",9,"WEEK 12",84,"2014-08-06","2014-08-06"],["CDISCPILOT01","SV","01-704-1445",9.1,"WEEK 14 (T)",98,"2014-08-24","2014-08-24"],["CDISCPILOT01","SV","01-704-1445",10,"WEEK 16",112,"2014-09-03","2014-09-03"],["CDISCPILOT01","SV","01-704-1445",10.1,"WEEK 18 (T)",126,"2014-09-25","2014-09-25"],["CDISCPILOT01","SV","01-704-1445",11,"WEEK 20",140,"2014-10-01","2014-10-01"],["CDISCPILOT01","SV","01-704-1445",11.1,"WEEK 22 (T)",154,"2014-10-15","2014-10-15"],["CDISCPILOT01","SV","01-704-1445",12,"WEEK 24",168,"2014-11-01","2014-11-01"],["CDISCPILOT01","SV","01-705-1011",1,"SCREENING 1",-7,"2013-09-01","2013-09-01"],["CDISCPILOT01","SV","01-705-1018",1,"SCREENING 1",-7,"2013-06-30","2013-06-30"],["CDISCPILOT01","SV","01-705-1018",2,"SCREENING 2",-1,"2013-07-03","2013-07-03"],["CDISCPILOT01","SV","01-705-1018",3,"BASELINE",1,"2013-07-05","2013-07-05"],["CDISCPILOT01","SV","01-705-1018",4,"WEEK 2",14,"2013-07-12","2013-07-12"],["CDISCPILOT01","SV","01-705-1031",1,"SCREENING 1",-7,"2013-11-17","2013-11-17"],["CDISCPILOT01","SV","01-705-1031",2,"SCREENING 2",-1,"2013-11-19","2013-11-19"],["CDISCPILOT01","SV","01-705-1031",3,"BASELINE",1,"2013-11-27","2013-11-27"],["CDISCPILOT01","SV","01-705-1031",3.5,"AMBUL ECG PLACEMENT",13,"2013-12-17","2013-12-17"],["CDISCPILOT01","SV","01-705-1031",4,"WEEK 2",14,"2013-12-18","2013-12-18"],["CDISCPILOT01","SV","01-705-1031",5,"WEEK 4",28,"2013-12-25","2013-12-25"],["CDISCPILOT01","SV","01-705-1031",6,"AMBUL ECG REMOVAL",30,"2013-12-27","2013-12-27"],["CDISCPILOT01","SV","01-705-1031",7,"WEEK 6",42,"2014-01-12","2014-01-12"],["CDISCPILOT01","SV","01-705-1031",8,"WEEK 8",56,"2014-01-23","2014-01-23"],["CDISCPILOT01","SV","01-705-1031",8.1,"WEEK 10 (T)",70,"2014-02-06","2014-02-06"],["CDISCPILOT01","SV","01-705-1031",9,"WEEK 12",84,"2014-02-20","2014-02-20"],["CDISCPILOT01","SV","01-705-1031",9.1,"WEEK 14 (T)",98,"2014-03-06","2014-03-06"],["CDISCPILOT01","SV","01-705-1031",10,"WEEK 16",112,"2014-03-20","2014-03-20"],["CDISCPILOT01","SV","01-705-1031",10.1,"WEEK 18 (T)",126,"2014-04-03","2014-04-03"],["CDISCPILOT01","SV","01-705-1031",11,"WEEK 20",140,"2014-04-13","2014-04-13"],["CDISCPILOT01","SV","01-705-1031",11.1,"WEEK 22 (T)",154,"2014-04-26","2014-04-26"],["CDISCPILOT01","SV","01-705-1031",12,"WEEK 24",168,"2014-05-11","2014-05-11"],["CDISCPILOT01","SV","01-705-1058",1,"SCREENING 1",-7,"2013-12-02","2013-12-02"],["CDISCPILOT01","SV","01-705-1059",1,"SCREENING 1",-7,"2013-08-02","2013-08-02"],["CDISCPILOT01","SV","01-705-1059",2,"SCREENING 2",-1,"2013-08-03","2013-08-03"],["CDISCPILOT01","SV","01-705-1059",3,"BASELINE",1,"2013-08-05","2013-08-05"],["CDISCPILOT01","SV","01-705-1059",3.5,"AMBUL ECG PLACEMENT",13,"2013-08-18","2013-08-18"],["CDISCPILOT01","SV","01-705-1059",4,"WEEK 2",14,"2013-08-19","2013-08-19"],["CDISCPILOT01","SV","01-705-1059",5,"WEEK 4",28,"2013-09-05","2013-09-05"],["CDISCPILOT01","SV","01-705-1059",6,"AMBUL ECG REMOVAL",30,"2013-09-07","2013-09-07"],["CDISCPILOT01","SV","01-705-1059",7,"WEEK 6",42,"2013-09-19","2013-09-19"],["CDISCPILOT01","SV","01-705-1059",8,"WEEK 8",56,"2013-10-03","2013-10-03"],["CDISCPILOT01","SV","01-705-1059",8.1,"WEEK 10 (T)",70,"2013-10-17","2013-10-17"],["CDISCPILOT01","SV","01-705-1059",9,"WEEK 12",84,"2013-11-07","2013-11-07"],["CDISCPILOT01","SV","01-705-1059",9.1,"WEEK 14 (T)",98,"2013-11-21","2013-11-21"],["CDISCPILOT01","SV","01-705-1059",10,"WEEK 16",112,"2013-12-05","2013-12-05"],["CDISCPILOT01","SV","01-705-1059",101,"AE FOLLOW-UP",null,"2014-01-02","2014-01-02"],["CDISCPILOT01","SV","01-705-1059",201,"RETRIEVAL",168,"2014-02-06","2014-02-06"],["CDISCPILOT01","SV","01-705-1112",1,"SCREENING 1",-7,"2014-02-23","2014-02-23"],["CDISCPILOT01","SV","01-705-1186",1,"SCREENING 1",-7,"2014-01-03","2014-01-03"],["CDISCPILOT01","SV","01-705-1186",2,"SCREENING 2",-1,"2014-01-06","2014-01-06"],["CDISCPILOT01","SV","01-705-1186",3,"BASELINE",1,"2014-01-08","2014-01-08"],["CDISCPILOT01","SV","01-705-1186",3.5,"AMBUL ECG PLACEMENT",13,"2014-01-22","2014-01-22"],["CDISCPILOT01","SV","01-705-1186",4,"WEEK 2",14,"2014-01-23","2014-01-23"],["CDISCPILOT01","SV","01-705-1186",4.1,"UNSCHEDULED 4.1",null,"2014-01-26","2014-01-26"],["CDISCPILOT01","SV","01-705-1186",4.2,"UNSCHEDULED 4.2",null,"2014-02-01","2014-02-01"],["CDISCPILOT01","SV","01-705-1186",5,"WEEK 4",28,"2014-02-07","2014-02-07"],["CDISCPILOT01","SV","01-705-1186",5.1,"UNSCHEDULED 5.1",null,"2014-02-07","2014-02-07"],["CDISCPILOT01","SV","01-705-1199",1,"SCREENING 1",-7,"2013-09-11","2013-09-11"],["CDISCPILOT01","SV","01-705-1199",2,"SCREENING 2",-1,"2013-09-14","2013-09-14"],["CDISCPILOT01","SV","01-705-1199",3,"BASELINE",1,"2013-09-16","2013-09-16"],["CDISCPILOT01","SV","01-705-1199",4,"WEEK 2",14,"2013-09-29","2013-09-29"],["CDISCPILOT01","SV","01-705-1199",101,"AE FOLLOW-UP",null,"2013-09-29","2013-09-29"],["CDISCPILOT01","SV","01-705-1243",1,"SCREENING 1",-7,"2013-02-26","2013-02-26"],["CDISCPILOT01","SV","01-705-1280",1,"SCREENING 1",-7,"2014-01-11","2014-01-11"],["CDISCPILOT01","SV","01-705-1280",2,"SCREENING 2",-1,"2014-01-15","2014-01-15"],["CDISCPILOT01","SV","01-705-1280",3,"BASELINE",1,"2014-01-17","2014-01-17"],["CDISCPILOT01","SV","01-705-1280",3.5,"AMBUL ECG PLACEMENT",13,"2014-01-30","2014-01-30"],["CDISCPILOT01","SV","01-705-1280",4,"WEEK 2",14,"2014-01-31","2014-01-31"],["CDISCPILOT01","SV","01-705-1280",5,"WEEK 4",28,"2014-02-13","2014-02-13"],["CDISCPILOT01","SV","01-705-1280",6,"AMBUL ECG REMOVAL",30,"2014-02-15","2014-02-15"],["CDISCPILOT01","SV","01-705-1280",7,"WEEK 6",42,"2014-03-07","2014-03-07"],["CDISCPILOT01","SV","01-705-1280",8,"WEEK 8",56,"2014-03-21","2014-03-21"],["CDISCPILOT01","SV","01-705-1280",8.1,"WEEK 10 (T)",70,"2014-04-04","2014-04-04"],["CDISCPILOT01","SV","01-705-1280",9,"WEEK 12",84,"2014-04-18","2014-04-18"],["CDISCPILOT01","SV","01-705-1280",9.1,"WEEK 14 (T)",98,"2014-05-02","2014-05-02"],["CDISCPILOT01","SV","01-705-1280",10,"WEEK 16",112,"2014-05-16","2014-05-16"],["CDISCPILOT01","SV","01-705-1280",10.1,"WEEK 18 (T)",126,"2014-05-30","2014-05-30"],["CDISCPILOT01","SV","01-705-1280",11,"WEEK 20",140,"2014-06-13","2014-06-13"],["CDISCPILOT01","SV","01-705-1280",11.1,"WEEK 22 (T)",154,"2014-06-27","2014-06-27"],["CDISCPILOT01","SV","01-705-1280",12,"WEEK 24",168,"2014-07-11","2014-07-11"],["CDISCPILOT01","SV","01-705-1280",13,"WEEK 26",182,"2014-07-25","2014-07-25"],["CDISCPILOT01","SV","01-705-1281",1,"SCREENING 1",-7,"2013-11-26","2013-11-26"],["CDISCPILOT01","SV","01-705-1281",2,"SCREENING 2",-1,"2013-11-26","2013-11-26"],["CDISCPILOT01","SV","01-705-1281",3,"BASELINE",1,"2013-11-28","2013-11-28"],["CDISCPILOT01","SV","01-705-1281",3.5,"AMBUL ECG PLACEMENT",13,"2013-12-14","2013-12-14"],["CDISCPILOT01","SV","01-705-1281",4,"WEEK 2",14,"2013-12-15","2013-12-15"],["CDISCPILOT01","SV","01-705-1281",5,"WEEK 4",28,"2013-12-28","2013-12-28"],["CDISCPILOT01","SV","01-705-1281",6,"AMBUL ECG REMOVAL",30,"2013-12-30","2013-12-30"],["CDISCPILOT01","SV","01-705-1281",7,"WEEK 6",42,"2014-01-07","2014-01-07"],["CDISCPILOT01","SV","01-705-1281",8,"WEEK 8",56,"2014-01-21","2014-01-21"],["CDISCPILOT01","SV","01-705-1281",8.1,"WEEK 10 (T)",70,"2014-02-04","2014-02-04"],["CDISCPILOT01","SV","01-705-1281",9,"WEEK 12",84,"2014-02-18","2014-02-18"],["CDISCPILOT01","SV","01-705-1281",9.1,"WEEK 14 (T)",98,"2014-03-04","2014-03-04"],["CDISCPILOT01","SV","01-705-1281",10,"WEEK 16",112,"2014-03-17","2014-03-17"],["CDISCPILOT01","SV","01-705-1281",101,"AE FOLLOW-UP",null,"2014-04-20","2014-04-20"],["CDISCPILOT01","SV","01-705-1282",1,"SCREENING 1",-7,"2012-12-23","2012-12-23"],["CDISCPILOT01","SV","01-705-1282",2,"SCREENING 2",-1,"2012-12-24","2012-12-24"],["CDISCPILOT01","SV","01-705-1282",3,"BASELINE",1,"2012-12-26","2012-12-26"],["CDISCPILOT01","SV","01-705-1282",3.5,"AMBUL ECG PLACEMENT",13,"2013-01-08","2013-01-08"],["CDISCPILOT01","SV","01-705-1282",4,"WEEK 2",14,"2013-01-09","2013-01-09"],["CDISCPILOT01","SV","01-705-1282",5,"WEEK 4",28,"2013-01-21","2013-01-21"],["CDISCPILOT01","SV","01-705-1282",6,"AMBUL ECG REMOVAL",30,"2013-01-23","2013-01-23"],["CDISCPILOT01","SV","01-705-1282",7,"WEEK 6",42,"2013-02-07","2013-02-07"],["CDISCPILOT01","SV","01-705-1282",8,"WEEK 8",56,"2013-02-20","2013-02-20"],["CDISCPILOT01","SV","01-705-1282",8.1,"WEEK 10 (T)",70,"2013-03-06","2013-03-06"],["CDISCPILOT01","SV","01-705-1282",9,"WEEK 12",84,"2013-03-20","2013-03-20"],["CDISCPILOT01","SV","01-705-1282",9.1,"WEEK 14 (T)",98,"2013-04-03","2013-04-03"],["CDISCPILOT01","SV","01-705-1282",10,"WEEK 16",112,"2013-04-16","2013-04-16"],["CDISCPILOT01","SV","01-705-1282",10.1,"WEEK 18 (T)",126,"2013-04-30","2013-04-30"],["CDISCPILOT01","SV","01-705-1282",11,"WEEK 20",140,"2013-05-14","2013-05-14"],["CDISCPILOT01","SV","01-705-1282",11.1,"WEEK 22 (T)",154,"2013-05-28","2013-05-28"],["CDISCPILOT01","SV","01-705-1282",12,"WEEK 24",168,"2013-06-11","2013-06-11"],["CDISCPILOT01","SV","01-705-1282",13,"WEEK 26",182,"2013-06-24","2013-06-24"],["CDISCPILOT01","SV","01-705-1292",1,"SCREENING 1",-7,"2013-10-11","2013-10-11"],["CDISCPILOT01","SV","01-705-1292",2,"SCREENING 2",-1,"2013-10-12","2013-10-12"],["CDISCPILOT01","SV","01-705-1292",3,"BASELINE",1,"2013-10-14","2013-10-14"],["CDISCPILOT01","SV","01-705-1292",3.5,"AMBUL ECG PLACEMENT",13,"2013-10-28","2013-10-28"],["CDISCPILOT01","SV","01-705-1292",4,"WEEK 2",14,"2013-10-29","2013-10-29"],["CDISCPILOT01","SV","01-705-1292",5,"WEEK 4",28,"2013-11-22","2013-11-22"],["CDISCPILOT01","SV","01-705-1292",5.1,"UNSCHEDULED 5.1",null,"2013-11-25","2013-11-25"],["CDISCPILOT01","SV","01-705-1292",6,"AMBUL ECG REMOVAL",30,"2013-11-25","2013-11-25"],["CDISCPILOT01","SV","01-705-1292",7,"WEEK 6",42,"2013-12-11","2013-12-11"],["CDISCPILOT01","SV","01-705-1292",8,"WEEK 8",56,"2014-01-02","2014-01-02"],["CDISCPILOT01","SV","01-705-1292",8.1,"WEEK 10 (T)",70,"2014-01-16","2014-01-16"],["CDISCPILOT01","SV","01-705-1292",9,"WEEK 12",84,"2014-02-07","2014-02-07"],["CDISCPILOT01","SV","01-705-1292",9.1,"WEEK 14 (T)",98,"2014-02-21","2014-02-21"],["CDISCPILOT01","SV","01-705-1292",10,"WEEK 16",112,"2014-03-03","2014-03-03"],["CDISCPILOT01","SV","01-705-1292",10.1,"WEEK 18 (T)",126,"2014-03-17","2014-03-17"],["CDISCPILOT01","SV","01-705-1292",11,"WEEK 20",140,"2014-03-31","2014-03-31"],["CDISCPILOT01","SV","01-705-1292",11.1,"WEEK 22 (T)",154,"2014-04-14","2014-04-14"],["CDISCPILOT01","SV","01-705-1292",12,"WEEK 24",168,"2014-04-28","2014-04-28"],["CDISCPILOT01","SV","01-705-1292",13,"WEEK 26",182,"2014-05-14","2014-05-14"],["CDISCPILOT01","SV","01-705-1303",1,"SCREENING 1",-7,"2013-12-10","2013-12-10"],["CDISCPILOT01","SV","01-705-1303",2,"SCREENING 2",-1,"2013-12-14","2013-12-14"],["CDISCPILOT01","SV","01-705-1303",3,"BASELINE",1,"2013-12-16","2013-12-16"],["CDISCPILOT01","SV","01-705-1303",3.5,"AMBUL ECG PLACEMENT",13,"2013-12-29","2013-12-29"],["CDISCPILOT01","SV","01-705-1303",4,"WEEK 2",14,"2013-12-30","2013-12-30"],["CDISCPILOT01","SV","01-705-1303",5,"WEEK 4",28,"2014-01-12","2014-01-12"],["CDISCPILOT01","SV","01-705-1303",6,"AMBUL ECG REMOVAL",30,"2014-01-14","2014-01-14"],["CDISCPILOT01","SV","01-705-1303",7,"WEEK 6",42,"2014-01-26","2014-01-26"],["CDISCPILOT01","SV","01-705-1303",8,"WEEK 8",56,"2014-02-10","2014-02-10"],["CDISCPILOT01","SV","01-705-1303",8.1,"WEEK 10 (T)",70,"2014-02-24","2014-02-24"],["CDISCPILOT01","SV","01-705-1303",9,"WEEK 12",84,"2014-03-03","2014-03-03"],["CDISCPILOT01","SV","01-705-1303",9.1,"WEEK 14 (T)",98,"2014-03-17","2014-03-17"],["CDISCPILOT01","SV","01-705-1303",10,"WEEK 16",112,"2014-04-07","2014-04-07"],["CDISCPILOT01","SV","01-705-1303",10.1,"WEEK 18 (T)",126,"2014-04-21","2014-04-21"],["CDISCPILOT01","SV","01-705-1303",11,"WEEK 20",140,"2014-06-02","2014-06-02"],["CDISCPILOT01","SV","01-705-1310",1,"SCREENING 1",-7,"2013-10-26","2013-10-26"],["CDISCPILOT01","SV","01-705-1310",2,"SCREENING 2",-1,"2013-10-31","2013-10-31"],["CDISCPILOT01","SV","01-705-1310",3,"BASELINE",1,"2013-11-02","2013-11-02"],["CDISCPILOT01","SV","01-705-1310",3.5,"AMBUL ECG PLACEMENT",13,"2013-11-21","2013-11-21"],["CDISCPILOT01","SV","01-705-1310",4,"WEEK 2",14,"2013-11-22","2013-11-22"],["CDISCPILOT01","SV","01-705-1310",5,"WEEK 4",28,"2013-11-30","2013-11-30"],["CDISCPILOT01","SV","01-705-1310",6,"AMBUL ECG REMOVAL",30,"2013-12-02","2013-12-02"],["CDISCPILOT01","SV","01-705-1310",7,"WEEK 6",42,"2013-12-16","2013-12-16"],["CDISCPILOT01","SV","01-705-1310",8,"WEEK 8",56,"2013-12-26","2013-12-26"],["CDISCPILOT01","SV","01-705-1310",8.1,"WEEK 10 (T)",70,"2014-01-10","2014-01-10"],["CDISCPILOT01","SV","01-705-1310",8.2,"UNSCHEDULED 8.2",null,"2014-01-10","2014-01-10"],["CDISCPILOT01","SV","01-705-1310",9,"WEEK 12",84,"2014-01-23","2014-01-23"],["CDISCPILOT01","SV","01-705-1310",101,"AE FOLLOW-UP",null,"2014-02-24","2014-02-24"],["CDISCPILOT01","SV","01-705-1349",1,"SCREENING 1",-7,"2013-02-24","2013-02-24"],["CDISCPILOT01","SV","01-705-1349",1.1,"UNSCHEDULED 1.1",null,"2013-03-03","2013-03-03"],["CDISCPILOT01","SV","01-705-1349",2,"SCREENING 2",-1,"2013-03-08","2013-03-08"],["CDISCPILOT01","SV","01-705-1349",3,"BASELINE",1,"2013-03-10","2013-03-10"],["CDISCPILOT01","SV","01-705-1349",3.5,"AMBUL ECG PLACEMENT",13,"2013-03-23","2013-03-23"],["CDISCPILOT01","SV","01-705-1349",4,"WEEK 2",14,"2013-03-24","2013-03-24"],["CDISCPILOT01","SV","01-705-1349",5,"WEEK 4",28,"2013-04-04","2013-04-04"],["CDISCPILOT01","SV","01-705-1349",6,"AMBUL ECG REMOVAL",30,"2013-04-17","2013-04-17"],["CDISCPILOT01","SV","01-705-1349",7,"WEEK 6",42,"2013-04-17","2013-04-17"],["CDISCPILOT01","SV","01-705-1349",8,"WEEK 8",56,"2013-05-01","2013-05-01"],["CDISCPILOT01","SV","01-705-1349",8.1,"WEEK 10 (T)",70,"2013-05-15","2013-05-15"],["CDISCPILOT01","SV","01-705-1349",9,"WEEK 12",84,"2013-05-28","2013-05-28"],["CDISCPILOT01","SV","01-705-1349",9.1,"WEEK 14 (T)",98,"2013-06-11","2013-06-11"],["CDISCPILOT01","SV","01-705-1349",10,"WEEK 16",112,"2013-06-25","2013-06-25"],["CDISCPILOT01","SV","01-705-1349",10.1,"WEEK 18 (T)",126,"2013-07-09","2013-07-09"],["CDISCPILOT01","SV","01-705-1349",11,"WEEK 20",140,"2013-07-23","2013-07-23"],["CDISCPILOT01","SV","01-705-1349",11.1,"WEEK 22 (T)",154,"2013-08-06","2013-08-06"],["CDISCPILOT01","SV","01-705-1349",12,"WEEK 24",168,"2013-08-25","2013-08-25"],["CDISCPILOT01","SV","01-705-1349",13,"WEEK 26",182,"2013-09-08","2013-09-08"],["CDISCPILOT01","SV","01-705-1377",1,"SCREENING 1",-7,"2013-12-29","2013-12-29"],["CDISCPILOT01","SV","01-705-1377",2,"SCREENING 2",-1,"2014-01-02","2014-01-02"],["CDISCPILOT01","SV","01-705-1377",3,"BASELINE",1,"2014-01-04","2014-01-04"],["CDISCPILOT01","SV","01-705-1377",3.5,"AMBUL ECG PLACEMENT",13,"2014-01-24","2014-01-24"],["CDISCPILOT01","SV","01-705-1377",4,"WEEK 2",14,"2014-01-25","2014-01-25"],["CDISCPILOT01","SV","01-705-1377",5,"WEEK 4",28,"2014-02-07","2014-02-07"],["CDISCPILOT01","SV","01-705-1377",6,"AMBUL ECG REMOVAL",30,"2014-02-09","2014-02-09"],["CDISCPILOT01","SV","01-705-1377",7,"WEEK 6",42,"2014-03-07","2014-03-07"],["CDISCPILOT01","SV","01-705-1382",1,"SCREENING 1",-7,"2013-05-09","2013-05-09"],["CDISCPILOT01","SV","01-705-1382",2,"SCREENING 2",-1,"2013-05-11","2013-05-11"],["CDISCPILOT01","SV","01-705-1382",3,"BASELINE",1,"2013-05-13","2013-05-13"],["CDISCPILOT01","SV","01-705-1382",4,"WEEK 2",14,"2013-05-13","2013-05-13"],["CDISCPILOT01","SV","01-705-1393",1,"SCREENING 1",-7,"2012-09-02","2012-09-02"],["CDISCPILOT01","SV","01-705-1393",1.1,"UNSCHEDULED 1.1",null,"2012-09-05","2012-09-05"],["CDISCPILOT01","SV","01-705-1393",2,"SCREENING 2",-1,"2012-09-05","2012-09-05"],["CDISCPILOT01","SV","01-705-1393",3,"BASELINE",1,"2012-09-07","2012-09-07"],["CDISCPILOT01","SV","01-705-1393",3.5,"AMBUL ECG PLACEMENT",13,"2012-09-26","2012-09-26"],["CDISCPILOT01","SV","01-705-1393",4,"WEEK 2",14,"2012-09-27","2012-09-27"],["CDISCPILOT01","SV","01-705-1393",5,"WEEK 4",28,"2012-10-10","2012-10-10"],["CDISCPILOT01","SV","01-705-1393",6,"AMBUL ECG REMOVAL",30,"2012-10-12","2012-10-12"],["CDISCPILOT01","SV","01-705-1393",7,"WEEK 6",42,"2012-10-26","2012-10-26"],["CDISCPILOT01","SV","01-705-1393",8,"WEEK 8",56,"2012-11-02","2012-11-02"],["CDISCPILOT01","SV","01-705-1393",8.1,"WEEK 10 (T)",70,"2012-11-16","2012-11-16"],["CDISCPILOT01","SV","01-705-1393",9,"WEEK 12",84,"2012-12-05","2012-12-05"],["CDISCPILOT01","SV","01-705-1393",9.1,"WEEK 14 (T)",98,"2012-12-20","2012-12-20"],["CDISCPILOT01","SV","01-705-1393",10,"WEEK 16",112,"2013-01-02","2013-01-02"],["CDISCPILOT01","SV","01-705-1393",10.1,"WEEK 18 (T)",126,"2013-01-16","2013-01-16"],["CDISCPILOT01","SV","01-705-1393",11,"WEEK 20",140,"2013-02-20","2013-02-20"],["CDISCPILOT01","SV","01-705-1393",101,"AE FOLLOW-UP",null,"2013-04-25","2013-04-25"],["CDISCPILOT01","SV","01-705-1421",1,"SCREENING 1",-7,"2013-01-14","2013-01-14"],["CDISCPILOT01","SV","01-705-1431",1,"SCREENING 1",-7,"2013-06-16","2013-06-16"],["CDISCPILOT01","SV","01-705-1431",2,"SCREENING 2",-1,"2013-06-21","2013-06-21"],["CDISCPILOT01","SV","01-705-1431",3,"BASELINE",1,"2013-06-23","2013-06-23"],["CDISCPILOT01","SV","01-705-1431",3.5,"AMBUL ECG PLACEMENT",13,"2013-07-06","2013-07-06"],["CDISCPILOT01","SV","01-705-1431",4,"WEEK 2",14,"2013-07-07","2013-07-07"],["CDISCPILOT01","SV","01-705-1431",5,"WEEK 4",28,"2013-07-20","2013-07-20"],["CDISCPILOT01","SV","01-705-1431",6,"AMBUL ECG REMOVAL",30,"2013-07-22","2013-07-22"],["CDISCPILOT01","SV","01-705-1431",7,"WEEK 6",42,"2013-08-07","2013-08-07"],["CDISCPILOT01","SV","01-705-1431",8,"WEEK 8",56,"2013-08-21","2013-08-21"],["CDISCPILOT01","SV","01-705-1431",8.1,"WEEK 10 (T)",70,"2013-09-04","2013-09-04"],["CDISCPILOT01","SV","01-705-1431",9,"WEEK 12",84,"2013-09-18","2013-09-18"],["CDISCPILOT01","SV","01-705-1431",9.1,"WEEK 14 (T)",98,"2013-10-02","2013-10-02"],["CDISCPILOT01","SV","01-705-1431",10,"WEEK 16",112,"2013-10-17","2013-10-17"],["CDISCPILOT01","SV","01-705-1431",10.1,"WEEK 18 (T)",126,"2013-10-30","2013-10-30"],["CDISCPILOT01","SV","01-705-1431",11,"WEEK 20",140,"2013-11-13","2013-11-13"],["CDISCPILOT01","SV","01-705-1431",11.1,"WEEK 22 (T)",154,"2013-11-27","2013-11-27"],["CDISCPILOT01","SV","01-705-1431",12,"WEEK 24",168,"2013-12-05","2013-12-05"],["CDISCPILOT01","SV","01-705-1431",13,"WEEK 26",182,"2013-12-19","2013-12-19"],["CDISCPILOT01","SV","01-706-1041",1,"SCREENING 1",-7,"2013-12-21","2013-12-21"],["CDISCPILOT01","SV","01-706-1041",2,"SCREENING 2",-1,"2013-12-28","2013-12-28"],["CDISCPILOT01","SV","01-706-1041",3,"BASELINE",1,"2013-12-31","2013-12-31"],["CDISCPILOT01","SV","01-706-1041",3.5,"AMBUL ECG PLACEMENT",13,"2014-01-11","2014-01-11"],["CDISCPILOT01","SV","01-706-1041",4,"WEEK 2",14,"2014-01-14","2014-01-14"],["CDISCPILOT01","SV","01-706-1041",5,"WEEK 4",28,"2014-01-28","2014-01-28"],["CDISCPILOT01","SV","01-706-1041",6,"AMBUL ECG REMOVAL",30,"2014-01-30","2014-01-30"],["CDISCPILOT01","SV","01-706-1041",7,"WEEK 6",42,"2014-02-11","2014-02-11"],["CDISCPILOT01","SV","01-706-1041",8,"WEEK 8",56,"2014-03-04","2014-03-04"],["CDISCPILOT01","SV","01-706-1041",8.1,"WEEK 10 (T)",70,"2014-03-18","2014-03-18"],["CDISCPILOT01","SV","01-706-1041",9,"WEEK 12",84,"2014-04-01","2014-04-01"],["CDISCPILOT01","SV","01-706-1041",9.1,"WEEK 14 (T)",98,"2014-04-22","2014-04-22"],["CDISCPILOT01","SV","01-706-1041",10,"WEEK 16",112,"2014-05-06","2014-05-06"],["CDISCPILOT01","SV","01-706-1041",10.1,"WEEK 18 (T)",126,"2014-05-20","2014-05-20"],["CDISCPILOT01","SV","01-706-1041",11,"WEEK 20",140,"2014-06-10","2014-06-10"],["CDISCPILOT01","SV","01-706-1041",11.1,"WEEK 22 (T)",154,"2014-06-26","2014-06-26"],["CDISCPILOT01","SV","01-706-1041",12,"WEEK 24",168,"2014-07-15","2014-07-15"],["CDISCPILOT01","SV","01-706-1041",13,"WEEK 26",182,"2014-07-29","2014-07-29"],["CDISCPILOT01","SV","01-706-1049",1,"SCREENING 1",-7,"2013-04-30","2013-04-30"],["CDISCPILOT01","SV","01-706-1049",2,"SCREENING 2",-1,"2013-05-11","2013-05-11"],["CDISCPILOT01","SV","01-706-1049",3,"BASELINE",1,"2013-05-14","2013-05-14"],["CDISCPILOT01","SV","01-706-1049",3.5,"AMBUL ECG PLACEMENT",13,"2013-05-25","2013-05-25"],["CDISCPILOT01","SV","01-706-1049",4,"WEEK 2",14,"2013-05-28","2013-05-28"],["CDISCPILOT01","SV","01-706-1049",5,"WEEK 4",28,"2013-06-11","2013-06-11"],["CDISCPILOT01","SV","01-706-1049",6,"AMBUL ECG REMOVAL",30,"2013-06-13","2013-06-13"],["CDISCPILOT01","SV","01-706-1049",7,"WEEK 6",42,"2013-06-25","2013-06-25"],["CDISCPILOT01","SV","01-706-1049",101,"AE FOLLOW-UP",null,"2013-08-20","2013-08-20"],["CDISCPILOT01","SV","01-706-1049",201,"RETRIEVAL",168,"2013-11-26","2013-11-26"],["CDISCPILOT01","SV","01-706-1384",1,"SCREENING 1",-7,"2012-08-25","2012-08-25"],["CDISCPILOT01","SV","01-706-1384",1.1,"UNSCHEDULED 1.1",null,"2012-08-28","2012-08-28"],["CDISCPILOT01","SV","01-706-1384",2,"SCREENING 2",-1,"2012-09-12","2012-09-12"],["CDISCPILOT01","SV","01-706-1384",3,"BASELINE",1,"2012-09-15","2012-09-15"],["CDISCPILOT01","SV","01-706-1384",4,"WEEK 2",14,"2012-09-29","2012-09-29"],["CDISCPILOT01","SV","01-706-1384",201,"RETRIEVAL",168,"2013-06-22","2013-06-22"],["CDISCPILOT01","SV","01-707-1037",1,"SCREENING 1",-7,"2013-12-12","2013-12-12"],["CDISCPILOT01","SV","01-707-1037",2,"SCREENING 2",-1,"2013-12-18","2013-12-18"],["CDISCPILOT01","SV","01-707-1037",3,"BASELINE",1,"2013-12-20","2013-12-20"],["CDISCPILOT01","SV","01-707-1037",4,"WEEK 2",14,"2014-01-08","2014-01-08"],["CDISCPILOT01","SV","01-707-1206",1,"SCREENING 1",-7,"2013-10-20","2013-10-20"],["CDISCPILOT01","SV","01-707-1206",2,"SCREENING 2",-1,"2013-10-26","2013-10-26"],["CDISCPILOT01","SV","01-707-1206",3,"BASELINE",1,"2013-10-28","2013-10-28"],["CDISCPILOT01","SV","01-707-1206",3.5,"AMBUL ECG PLACEMENT",13,"2013-11-11","2013-11-11"],["CDISCPILOT01","SV","01-707-1206",4,"WEEK 2",14,"2013-11-12","2013-11-12"],["CDISCPILOT01","SV","01-707-1206",5,"WEEK 4",28,"2013-11-25","2013-11-25"],["CDISCPILOT01","SV","01-707-1206",6,"AMBUL ECG REMOVAL",30,"2013-11-27","2013-11-27"],["CDISCPILOT01","SV","01-707-1206",7,"WEEK 6",42,"2013-12-09","2013-12-09"],["CDISCPILOT01","SV","01-707-1206",8,"WEEK 8",56,"2013-12-23","2013-12-23"],["CDISCPILOT01","SV","01-707-1206",8.1,"WEEK 10 (T)",70,"2014-01-05","2014-01-05"],["CDISCPILOT01","SV","01-707-1206",9,"WEEK 12",84,"2014-01-19","2014-01-19"],["CDISCPILOT01","SV","01-707-1206",9.1,"WEEK 14 (T)",98,"2014-02-02","2014-02-02"],["CDISCPILOT01","SV","01-707-1206",10,"WEEK 16",112,"2014-02-16","2014-02-16"],["CDISCPILOT01","SV","01-707-1206",10.1,"WEEK 18 (T)",126,"2014-03-01","2014-03-01"],["CDISCPILOT01","SV","01-707-1206",11,"WEEK 20",140,"2014-03-16","2014-03-16"],["CDISCPILOT01","SV","01-707-1206",11.1,"WEEK 22 (T)",154,"2014-03-30","2014-03-30"],["CDISCPILOT01","SV","01-707-1206",12,"WEEK 24",168,"2014-04-13","2014-04-13"],["CDISCPILOT01","SV","01-707-1206",13,"WEEK 26",182,"2014-04-27","2014-04-27"],["CDISCPILOT01","SV","01-707-1276",1,"SCREENING 1",-7,"2012-10-12","2012-10-12"],["CDISCPILOT01","SV","01-707-1430",1,"SCREENING 1",-7,"2014-02-14","2014-02-14"],["CDISCPILOT01","SV","01-707-1434",1,"SCREENING 1",-7,"2013-07-25","2013-07-25"],["CDISCPILOT01","SV","01-708-1013",1,"SCREENING 1",-7,"2012-10-13","2012-10-13"],["CDISCPILOT01","SV","01-708-1019",1,"SCREENING 1",-7,"2013-12-10","2013-12-10"],["CDISCPILOT01","SV","01-708-1019",2,"SCREENING 2",-1,"2013-12-17","2013-12-17"],["CDISCPILOT01","SV","01-708-1019",3,"BASELINE",1,"2013-12-20","2013-12-20"],["CDISCPILOT01","SV","01-708-1019",4,"WEEK 2",14,"2014-01-23","2014-01-23"],["CDISCPILOT01","SV","01-708-1032",1,"SCREENING 1",-7,"2013-02-02","2013-02-02"],["CDISCPILOT01","SV","01-708-1032",2,"SCREENING 2",-1,"2013-02-07","2013-02-07"],["CDISCPILOT01","SV","01-708-1032",3,"BASELINE",1,"2013-02-09","2013-02-09"],["CDISCPILOT01","SV","01-708-1032",3.5,"AMBUL ECG PLACEMENT",13,"2013-02-22","2013-02-22"],["CDISCPILOT01","SV","01-708-1032",4,"WEEK 2",14,"2013-02-23","2013-02-23"],["CDISCPILOT01","SV","01-708-1032",5,"WEEK 4",28,"2013-03-09","2013-03-09"],["CDISCPILOT01","SV","01-708-1054",1,"SCREENING 1",-7,"2014-02-14","2014-02-14"],["CDISCPILOT01","SV","01-708-1067",1,"SCREENING 1",-7,"2013-02-07","2013-02-07"],["CDISCPILOT01","SV","01-708-1084",1,"SCREENING 1",-7,"2013-05-01","2013-05-01"],["CDISCPILOT01","SV","01-708-1084",2,"SCREENING 2",-1,"2013-05-06","2013-05-06"],["CDISCPILOT01","SV","01-708-1084",3,"BASELINE",1,"2013-05-09","2013-05-09"],["CDISCPILOT01","SV","01-708-1084",3.5,"AMBUL ECG PLACEMENT",13,"2013-05-23","2013-05-23"],["CDISCPILOT01","SV","01-708-1084",4,"WEEK 2",14,"2013-05-23","2013-05-23"],["CDISCPILOT01","SV","01-708-1084",5,"WEEK 4",28,"2013-06-09","2013-06-09"],["CDISCPILOT01","SV","01-708-1084",6,"AMBUL ECG REMOVAL",30,"2013-06-11","2013-06-11"],["CDISCPILOT01","SV","01-708-1084",7,"WEEK 6",42,"2013-06-23","2013-06-23"],["CDISCPILOT01","SV","01-708-1084",8,"WEEK 8",56,"2013-07-07","2013-07-07"],["CDISCPILOT01","SV","01-708-1084",8.1,"WEEK 10 (T)",70,"2013-07-21","2013-07-21"],["CDISCPILOT01","SV","01-708-1084",9,"WEEK 12",84,"2013-08-01","2013-08-01"],["CDISCPILOT01","SV","01-708-1084",9.1,"WEEK 14 (T)",98,"2013-08-19","2013-08-19"],["CDISCPILOT01","SV","01-708-1084",9.2,"UNSCHEDULED 9.2",null,"2013-08-19","2013-08-19"],["CDISCPILOT01","SV","01-708-1084",10,"WEEK 16",112,"2013-09-01","2013-09-01"],["CDISCPILOT01","SV","01-708-1084",10.1,"WEEK 18 (T)",126,"2013-09-15","2013-09-15"],["CDISCPILOT01","SV","01-708-1084",11,"WEEK 20",140,"2013-10-01","2013-10-01"],["CDISCPILOT01","SV","01-708-1084",11.1,"WEEK 22 (T)",154,"2013-10-15","2013-10-15"],["CDISCPILOT01","SV","01-708-1084",12,"WEEK 24",168,"2013-10-28","2013-10-28"],["CDISCPILOT01","SV","01-708-1084",13,"WEEK 26",182,"2013-11-11","2013-11-11"],["CDISCPILOT01","SV","01-708-1087",1,"SCREENING 1",-7,"2012-10-06","2012-10-06"],["CDISCPILOT01","SV","01-708-1087",2,"SCREENING 2",-1,"2012-10-20","2012-10-20"],["CDISCPILOT01","SV","01-708-1087",3,"BASELINE",1,"2012-10-22","2012-10-22"],["CDISCPILOT01","SV","01-708-1087",3.5,"AMBUL ECG PLACEMENT",13,"2012-11-04","2012-11-04"],["CDISCPILOT01","SV","01-708-1087",4,"WEEK 2",14,"2012-11-05","2012-11-05"],["CDISCPILOT01","SV","01-708-1087",5,"WEEK 4",28,"2012-11-20","2012-11-20"],["CDISCPILOT01","SV","01-708-1087",6,"AMBUL ECG REMOVAL",30,"2012-11-25","2012-11-25"],["CDISCPILOT01","SV","01-708-1087",7,"WEEK 6",42,"2012-12-08","2012-12-08"],["CDISCPILOT01","SV","01-708-1087",8,"WEEK 8",56,"2012-12-22","2012-12-22"],["CDISCPILOT01","SV","01-708-1087",8.1,"WEEK 10 (T)",70,"2013-01-05","2013-01-05"],["CDISCPILOT01","SV","01-708-1087",9,"WEEK 12",84,"2013-01-19","2013-01-19"],["CDISCPILOT01","SV","01-708-1087",9.1,"WEEK 14 (T)",98,"2013-02-02","2013-02-02"],["CDISCPILOT01","SV","01-708-1087",10,"WEEK 16",112,"2013-02-16","2013-02-16"],["CDISCPILOT01","SV","01-708-1087",10.1,"WEEK 18 (T)",126,"2013-03-02","2013-03-02"],["CDISCPILOT01","SV","01-708-1087",11,"WEEK 20",140,"2013-03-16","2013-03-16"],["CDISCPILOT01","SV","01-708-1087",11.1,"WEEK 22 (T)",154,"2013-03-30","2013-03-30"],["CDISCPILOT01","SV","01-708-1087",12,"WEEK 24",168,"2013-04-10","2013-04-10"],["CDISCPILOT01","SV","01-708-1087",13,"WEEK 26",182,"2013-04-28","2013-04-28"],["CDISCPILOT01","SV","01-708-1104",1,"SCREENING 1",-7,"2014-01-23","2014-01-23"],["CDISCPILOT01","SV","01-708-1158",1,"SCREENING 1",-7,"2014-02-01","2014-02-01"],["CDISCPILOT01","SV","01-708-1158",1.1,"UNSCHEDULED 1.1",null,"2014-02-01","2014-02-01"],["CDISCPILOT01","SV","01-708-1158",1.2,"UNSCHEDULED 1.2",null,"2014-02-26","2014-02-26"],["CDISCPILOT01","SV","01-708-1158",2,"SCREENING 2",-1,"2014-02-06","2014-02-06"],["CDISCPILOT01","SV","01-708-1158",3,"BASELINE",1,"2014-02-08","2014-02-08"],["CDISCPILOT01","SV","01-708-1158",3.5,"AMBUL ECG PLACEMENT",13,"2014-02-25","2014-02-25"],["CDISCPILOT01","SV","01-708-1158",4,"WEEK 2",14,"2014-02-26","2014-02-26"],["CDISCPILOT01","SV","01-708-1158",5,"WEEK 4",28,"2014-03-06","2014-03-06"],["CDISCPILOT01","SV","01-708-1158",6,"AMBUL ECG REMOVAL",30,"2014-03-08","2014-03-08"],["CDISCPILOT01","SV","01-708-1158",7,"WEEK 6",42,"2014-03-22","2014-03-22"],["CDISCPILOT01","SV","01-708-1171",1,"SCREENING 1",-7,"2012-11-25","2012-11-25"],["CDISCPILOT01","SV","01-708-1171",2,"SCREENING 2",-1,"2012-12-02","2012-12-02"],["CDISCPILOT01","SV","01-708-1171",3,"BASELINE",1,"2012-12-06","2012-12-06"],["CDISCPILOT01","SV","01-708-1171",3.5,"AMBUL ECG PLACEMENT",13,"2012-12-17","2012-12-17"],["CDISCPILOT01","SV","01-708-1171",4,"WEEK 2",14,"2012-12-18","2012-12-18"],["CDISCPILOT01","SV","01-708-1171",5,"WEEK 4",28,"2012-12-31","2012-12-31"],["CDISCPILOT01","SV","01-708-1171",6,"AMBUL ECG REMOVAL",30,"2013-01-02","2013-01-02"],["CDISCPILOT01","SV","01-708-1171",7,"WEEK 6",42,"2013-01-14","2013-01-14"],["CDISCPILOT01","SV","01-708-1171",8,"WEEK 8",56,"2013-01-28","2013-01-28"],["CDISCPILOT01","SV","01-708-1171",8.1,"WEEK 10 (T)",70,"2013-02-11","2013-02-11"],["CDISCPILOT01","SV","01-708-1171",9,"WEEK 12",84,"2013-02-25","2013-02-25"],["CDISCPILOT01","SV","01-708-1171",9.1,"WEEK 14 (T)",98,"2013-03-11","2013-03-11"],["CDISCPILOT01","SV","01-708-1171",10,"WEEK 16",112,"2013-03-25","2013-03-25"],["CDISCPILOT01","SV","01-708-1171",10.1,"WEEK 18 (T)",126,"2013-04-08","2013-04-08"],["CDISCPILOT01","SV","01-708-1171",11,"WEEK 20",140,"2013-04-22","2013-04-22"],["CDISCPILOT01","SV","01-708-1171",11.1,"WEEK 22 (T)",154,"2013-05-02","2013-05-02"],["CDISCPILOT01","SV","01-708-1171",12,"WEEK 24",168,"2013-05-20","2013-05-20"],["CDISCPILOT01","SV","01-708-1171",13,"WEEK 26",182,"2013-06-04","2013-06-04"],["CDISCPILOT01","SV","01-708-1178",1,"SCREENING 1",-7,"2013-12-13","2013-12-13"],["CDISCPILOT01","SV","01-708-1178",1.1,"UNSCHEDULED 1.1",null,"2013-12-19","2013-12-19"],["CDISCPILOT01","SV","01-708-1178",1.2,"UNSCHEDULED 1.2",null,"2013-12-26","2013-12-26"],["CDISCPILOT01","SV","01-708-1178",2,"SCREENING 2",-1,"2013-12-19","2013-12-19"],["CDISCPILOT01","SV","01-708-1178",3,"BASELINE",1,"2013-12-29","2013-12-29"],["CDISCPILOT01","SV","01-708-1178",3.5,"AMBUL ECG PLACEMENT",13,"2014-01-09","2014-01-09"],["CDISCPILOT01","SV","01-708-1178",4,"WEEK 2",14,"2014-01-18","2014-01-18"],["CDISCPILOT01","SV","01-708-1178",5,"WEEK 4",28,"2014-02-02","2014-02-02"],["CDISCPILOT01","SV","01-708-1178",6,"AMBUL ECG REMOVAL",30,"2014-02-07","2014-02-07"],["CDISCPILOT01","SV","01-708-1178",7,"WEEK 6",42,"2014-02-23","2014-02-23"],["CDISCPILOT01","SV","01-708-1178",8,"WEEK 8",56,"2014-03-09","2014-03-09"],["CDISCPILOT01","SV","01-708-1178",8.1,"WEEK 10 (T)",70,"2014-03-27","2014-03-27"],["CDISCPILOT01","SV","01-708-1178",9,"WEEK 12",84,"2014-04-06","2014-04-06"],["CDISCPILOT01","SV","01-708-1184",1,"SCREENING 1",-7,"2013-01-14","2013-01-14"],["CDISCPILOT01","SV","01-708-1213",1,"SCREENING 1",-7,"2013-02-01","2013-02-01"],["CDISCPILOT01","SV","01-708-1213",2,"SCREENING 2",-1,"2013-02-07","2013-02-07"],["CDISCPILOT01","SV","01-708-1213",3,"BASELINE",1,"2013-02-09","2013-02-09"],["CDISCPILOT01","SV","01-708-1213",4,"WEEK 2",14,"2013-02-22","2013-02-22"],["CDISCPILOT01","SV","01-708-1213",5,"WEEK 4",28,"2013-02-26","2013-02-26"],["CDISCPILOT01","SV","01-708-1216",1,"SCREENING 1",-7,"2012-10-14","2012-10-14"],["CDISCPILOT01","SV","01-708-1216",2,"SCREENING 2",-1,"2012-10-19","2012-10-19"],["CDISCPILOT01","SV","01-708-1216",3,"BASELINE",1,"2012-10-24","2012-10-24"],["CDISCPILOT01","SV","01-708-1216",3.5,"AMBUL ECG PLACEMENT",13,"2012-11-07","2012-11-07"],["CDISCPILOT01","SV","01-708-1216",4,"WEEK 2",14,"2012-11-08","2012-11-08"],["CDISCPILOT01","SV","01-708-1216",5,"WEEK 4",28,"2012-11-22","2012-11-22"],["CDISCPILOT01","SV","01-708-1216",6,"AMBUL ECG REMOVAL",30,"2012-11-24","2012-11-24"],["CDISCPILOT01","SV","01-708-1216",7,"WEEK 6",42,"2012-12-06","2012-12-06"],["CDISCPILOT01","SV","01-708-1216",101,"AE FOLLOW-UP",null,"2013-01-09","2013-01-09"],["CDISCPILOT01","SV","01-708-1236",1,"SCREENING 1",-7,"2013-09-08","2013-09-08"],["CDISCPILOT01","SV","01-708-1236",1.1,"UNSCHEDULED 1.1",null,"2013-09-19","2013-09-19"],["CDISCPILOT01","SV","01-708-1236",2,"SCREENING 2",-1,"2013-09-19","2013-09-19"],["CDISCPILOT01","SV","01-708-1236",3,"BASELINE",1,"2013-09-21","2013-09-21"],["CDISCPILOT01","SV","01-708-1236",4,"WEEK 2",14,"2013-09-26","2013-09-26"],["CDISCPILOT01","SV","01-708-1242",1,"SCREENING 1",-7,"2012-08-13","2012-08-13"],["CDISCPILOT01","SV","01-708-1253",1,"SCREENING 1",-7,"2013-04-26","2013-04-26"],["CDISCPILOT01","SV","01-708-1253",2,"SCREENING 2",-1,"2013-05-05","2013-05-05"],["CDISCPILOT01","SV","01-708-1253",3,"BASELINE",1,"2013-05-07","2013-05-07"],["CDISCPILOT01","SV","01-708-1253",3.5,"AMBUL ECG PLACEMENT",13,"2013-05-20","2013-05-20"],["CDISCPILOT01","SV","01-708-1253",4,"WEEK 2",14,"2013-05-21","2013-05-21"],["CDISCPILOT01","SV","01-708-1253",4.1,"UNSCHEDULED 4.1",null,"2013-05-21","2013-05-21"],["CDISCPILOT01","SV","01-708-1253",5,"WEEK 4",28,"2013-06-07","2013-06-07"],["CDISCPILOT01","SV","01-708-1253",6,"AMBUL ECG REMOVAL",30,"2013-06-09","2013-06-09"],["CDISCPILOT01","SV","01-708-1253",7,"WEEK 6",42,"2013-06-25","2013-06-25"],["CDISCPILOT01","SV","01-708-1253",8,"WEEK 8",56,"2013-07-09","2013-07-09"],["CDISCPILOT01","SV","01-708-1253",8.1,"WEEK 10 (T)",70,"2013-07-26","2013-07-26"],["CDISCPILOT01","SV","01-708-1253",9,"WEEK 12",84,"2013-08-05","2013-08-05"],["CDISCPILOT01","SV","01-708-1253",9.1,"WEEK 14 (T)",98,"2013-08-20","2013-08-20"],["CDISCPILOT01","SV","01-708-1253",10,"WEEK 16",112,"2013-09-02","2013-09-02"],["CDISCPILOT01","SV","01-708-1253",10.1,"WEEK 18 (T)",126,"2013-09-16","2013-09-16"],["CDISCPILOT01","SV","01-708-1253",11,"WEEK 20",140,"2013-09-29","2013-09-29"],["CDISCPILOT01","SV","01-708-1253",11.1,"WEEK 22 (T)",154,"2013-10-13","2013-10-13"],["CDISCPILOT01","SV","01-708-1253",12,"WEEK 24",168,"2013-10-27","2013-10-27"],["CDISCPILOT01","SV","01-708-1253",13,"WEEK 26",182,"2013-11-05","2013-11-05"],["CDISCPILOT01","SV","01-708-1272",1,"SCREENING 1",-7,"2013-01-22","2013-01-22"],["CDISCPILOT01","SV","01-708-1272",2,"SCREENING 2",-1,"2013-01-30","2013-01-30"],["CDISCPILOT01","SV","01-708-1272",3,"BASELINE",1,"2013-02-06","2013-02-06"],["CDISCPILOT01","SV","01-708-1272",3.5,"AMBUL ECG PLACEMENT",13,"2013-02-19","2013-02-19"],["CDISCPILOT01","SV","01-708-1272",4,"WEEK 2",14,"2013-02-21","2013-02-21"],["CDISCPILOT01","SV","01-708-1272",5,"WEEK 4",28,"2013-03-07","2013-03-07"],["CDISCPILOT01","SV","01-708-1272",6,"AMBUL ECG REMOVAL",30,"2013-03-09","2013-03-09"],["CDISCPILOT01","SV","01-708-1272",7,"WEEK 6",42,"2013-03-20","2013-03-20"],["CDISCPILOT01","SV","01-708-1272",8,"WEEK 8",56,"2013-04-04","2013-04-04"],["CDISCPILOT01","SV","01-708-1286",1,"SCREENING 1",-7,"2013-08-25","2013-08-25"],["CDISCPILOT01","SV","01-708-1286",2,"SCREENING 2",-1,"2013-09-08","2013-09-08"],["CDISCPILOT01","SV","01-708-1286",3,"BASELINE",1,"2013-09-10","2013-09-10"],["CDISCPILOT01","SV","01-708-1286",3.5,"AMBUL ECG PLACEMENT",13,"2013-09-22","2013-09-22"],["CDISCPILOT01","SV","01-708-1286",4,"WEEK 2",14,"2013-09-23","2013-09-23"],["CDISCPILOT01","SV","01-708-1286",5,"WEEK 4",28,"2013-10-07","2013-10-07"],["CDISCPILOT01","SV","01-708-1286",6,"AMBUL ECG REMOVAL",30,"2013-10-09","2013-10-09"],["CDISCPILOT01","SV","01-708-1286",7,"WEEK 6",42,"2013-10-20","2013-10-20"],["CDISCPILOT01","SV","01-708-1286",8,"WEEK 8",56,"2013-11-03","2013-11-03"],["CDISCPILOT01","SV","01-708-1286",8.1,"WEEK 10 (T)",70,"2013-11-17","2013-11-17"],["CDISCPILOT01","SV","01-708-1286",9,"WEEK 12",84,"2013-12-01","2013-12-01"],["CDISCPILOT01","SV","01-708-1286",9.1,"WEEK 14 (T)",98,"2013-12-17","2013-12-17"],["CDISCPILOT01","SV","01-708-1286",10,"WEEK 16",112,"2013-12-29","2013-12-29"],["CDISCPILOT01","SV","01-708-1286",10.1,"WEEK 18 (T)",126,"2014-01-18","2014-01-18"],["CDISCPILOT01","SV","01-708-1286",11,"WEEK 20",140,"2014-02-01","2014-02-01"],["CDISCPILOT01","SV","01-708-1286",11.1,"WEEK 22 (T)",154,"2014-02-17","2014-02-17"],["CDISCPILOT01","SV","01-708-1286",12,"WEEK 24",168,"2014-02-23","2014-02-23"],["CDISCPILOT01","SV","01-708-1286",13,"WEEK 26",182,"2014-03-08","2014-03-08"],["CDISCPILOT01","SV","01-708-1296",1,"SCREENING 1",-7,"2013-06-07","2013-06-07"],["CDISCPILOT01","SV","01-708-1296",2,"SCREENING 2",-1,"2013-06-12","2013-06-12"],["CDISCPILOT01","SV","01-708-1296",3,"BASELINE",1,"2013-06-14","2013-06-14"],["CDISCPILOT01","SV","01-708-1296",3.5,"AMBUL ECG PLACEMENT",13,"2013-06-26","2013-06-26"],["CDISCPILOT01","SV","01-708-1296",4,"WEEK 2",14,"2013-06-27","2013-06-27"],["CDISCPILOT01","SV","01-708-1296",5,"WEEK 4",28,"2013-07-10","2013-07-10"],["CDISCPILOT01","SV","01-708-1296",6,"AMBUL ECG REMOVAL",30,"2013-07-12","2013-07-12"],["CDISCPILOT01","SV","01-708-1296",7,"WEEK 6",42,"2013-07-24","2013-07-24"],["CDISCPILOT01","SV","01-708-1296",8,"WEEK 8",56,"2013-08-07","2013-08-07"],["CDISCPILOT01","SV","01-708-1296",8.1,"WEEK 10 (T)",70,"2013-08-20","2013-08-20"],["CDISCPILOT01","SV","01-708-1296",9,"WEEK 12",84,"2013-09-04","2013-09-04"],["CDISCPILOT01","SV","01-708-1296",9.1,"WEEK 14 (T)",98,"2013-09-18","2013-09-18"],["CDISCPILOT01","SV","01-708-1296",10,"WEEK 16",112,"2013-10-02","2013-10-02"],["CDISCPILOT01","SV","01-708-1296",10.1,"WEEK 18 (T)",126,"2013-10-21","2013-10-21"],["CDISCPILOT01","SV","01-708-1296",11,"WEEK 20",140,"2013-10-30","2013-10-30"],["CDISCPILOT01","SV","01-708-1296",11.1,"WEEK 22 (T)",154,"2013-11-14","2013-11-14"],["CDISCPILOT01","SV","01-708-1296",12,"WEEK 24",168,"2013-11-27","2013-11-27"],["CDISCPILOT01","SV","01-708-1296",13,"WEEK 26",182,"2013-12-12","2013-12-12"],["CDISCPILOT01","SV","01-708-1297",1,"SCREENING 1",-7,"2013-01-15","2013-01-15"],["CDISCPILOT01","SV","01-708-1297",2,"SCREENING 2",-1,"2013-01-23","2013-01-23"],["CDISCPILOT01","SV","01-708-1297",3,"BASELINE",1,"2013-01-25","2013-01-25"],["CDISCPILOT01","SV","01-708-1297",3.5,"AMBUL ECG PLACEMENT",13,"2013-02-07","2013-02-07"],["CDISCPILOT01","SV","01-708-1297",4,"WEEK 2",14,"2013-02-08","2013-02-08"],["CDISCPILOT01","SV","01-708-1297",5,"WEEK 4",28,"2013-02-20","2013-02-20"],["CDISCPILOT01","SV","01-708-1297",6,"AMBUL ECG REMOVAL",30,"2013-02-22","2013-02-22"],["CDISCPILOT01","SV","01-708-1297",7,"WEEK 6",42,"2013-03-06","2013-03-06"],["CDISCPILOT01","SV","01-708-1297",8,"WEEK 8",56,"2013-03-19","2013-03-19"],["CDISCPILOT01","SV","01-708-1297",8.1,"WEEK 10 (T)",70,"2013-04-02","2013-04-02"],["CDISCPILOT01","SV","01-708-1297",9,"WEEK 12",84,"2013-04-16","2013-04-16"],["CDISCPILOT01","SV","01-708-1297",9.1,"WEEK 14 (T)",98,"2013-04-30","2013-04-30"],["CDISCPILOT01","SV","01-708-1297",10,"WEEK 16",112,"2013-05-08","2013-05-08"],["CDISCPILOT01","SV","01-708-1297",101,"AE FOLLOW-UP",null,"2013-06-07","2013-06-07"],["CDISCPILOT01","SV","01-708-1316",1,"SCREENING 1",-7,"2013-08-15","2013-08-15"],["CDISCPILOT01","SV","01-708-1316",2,"SCREENING 2",-1,"2013-08-22","2013-08-22"],["CDISCPILOT01","SV","01-708-1316",3,"BASELINE",1,"2013-08-23","2013-08-23"],["CDISCPILOT01","SV","01-708-1316",4,"WEEK 2",14,"2013-09-05","2013-09-05"],["CDISCPILOT01","SV","01-708-1316",5,"WEEK 4",28,"2013-09-22","2013-09-22"],["CDISCPILOT01","SV","01-708-1316",7,"WEEK 6",42,"2013-10-10","2013-10-10"],["CDISCPILOT01","SV","01-708-1316",8,"WEEK 8",56,"2013-10-25","2013-10-25"],["CDISCPILOT01","SV","01-708-1316",8.1,"WEEK 10 (T)",70,"2013-11-08","2013-11-08"],["CDISCPILOT01","SV","01-708-1316",9,"WEEK 12",84,"2013-11-22","2013-11-22"],["CDISCPILOT01","SV","01-708-1316",9.1,"WEEK 14 (T)",98,"2013-12-06","2013-12-06"],["CDISCPILOT01","SV","01-708-1316",10,"WEEK 16",112,"2013-12-21","2013-12-21"],["CDISCPILOT01","SV","01-708-1316",10.1,"WEEK 18 (T)",126,"2014-01-05","2014-01-05"],["CDISCPILOT01","SV","01-708-1316",11,"WEEK 20",140,"2014-01-18","2014-01-18"],["CDISCPILOT01","SV","01-708-1316",11.1,"WEEK 22 (T)",154,"2014-02-07","2014-02-07"],["CDISCPILOT01","SV","01-708-1316",12,"WEEK 24",168,"2014-02-15","2014-02-15"],["CDISCPILOT01","SV","01-708-1316",13,"WEEK 26",182,"2014-03-01","2014-03-01"],["CDISCPILOT01","SV","01-708-1336",1,"SCREENING 1",-7,"2012-11-21","2012-11-21"],["CDISCPILOT01","SV","01-708-1336",2,"SCREENING 2",-1,"2012-12-05","2012-12-05"],["CDISCPILOT01","SV","01-708-1336",3,"BASELINE",1,"2012-12-07","2012-12-07"],["CDISCPILOT01","SV","01-708-1336",3.5,"AMBUL ECG PLACEMENT",13,"2012-12-20","2012-12-20"],["CDISCPILOT01","SV","01-708-1336",4,"WEEK 2",14,"2012-12-21","2012-12-21"],["CDISCPILOT01","SV","01-708-1336",5,"WEEK 4",28,"2013-01-01","2013-01-01"],["CDISCPILOT01","SV","01-708-1336",6,"AMBUL ECG REMOVAL",30,"2013-01-03","2013-01-03"],["CDISCPILOT01","SV","01-708-1336",7,"WEEK 6",42,"2013-01-15","2013-01-15"],["CDISCPILOT01","SV","01-708-1336",8,"WEEK 8",56,"2013-01-29","2013-01-29"],["CDISCPILOT01","SV","01-708-1336",8.1,"WEEK 10 (T)",70,"2013-02-08","2013-02-08"],["CDISCPILOT01","SV","01-708-1336",9,"WEEK 12",84,"2013-02-27","2013-02-27"],["CDISCPILOT01","SV","01-708-1336",9.1,"WEEK 14 (T)",98,"2013-03-13","2013-03-13"],["CDISCPILOT01","SV","01-708-1336",10,"WEEK 16",112,"2013-03-27","2013-03-27"],["CDISCPILOT01","SV","01-708-1336",10.1,"WEEK 18 (T)",126,"2013-04-10","2013-04-10"],["CDISCPILOT01","SV","01-708-1336",11,"WEEK 20",140,"2013-04-23","2013-04-23"],["CDISCPILOT01","SV","01-708-1336",11.1,"WEEK 22 (T)",154,"2013-05-07","2013-05-07"],["CDISCPILOT01","SV","01-708-1336",12,"WEEK 24",168,"2013-05-22","2013-05-22"],["CDISCPILOT01","SV","01-708-1336",13,"WEEK 26",182,"2013-06-05","2013-06-05"],["CDISCPILOT01","SV","01-708-1336",101,"AE FOLLOW-UP",null,"2013-07-05","2013-07-05"],["CDISCPILOT01","SV","01-708-1342",1,"SCREENING 1",-7,"2012-12-21","2012-12-21"],["CDISCPILOT01","SV","01-708-1342",2,"SCREENING 2",-1,"2012-12-27","2012-12-27"],["CDISCPILOT01","SV","01-708-1342",3,"BASELINE",1,"2012-12-29","2012-12-29"],["CDISCPILOT01","SV","01-708-1342",3.5,"AMBUL ECG PLACEMENT",13,"2013-01-11","2013-01-11"],["CDISCPILOT01","SV","01-708-1342",4,"WEEK 2",14,"2013-01-12","2013-01-12"],["CDISCPILOT01","SV","01-708-1342",5,"WEEK 4",28,"2013-01-24","2013-01-24"],["CDISCPILOT01","SV","01-708-1342",6,"AMBUL ECG REMOVAL",30,"2013-01-26","2013-01-26"],["CDISCPILOT01","SV","01-708-1342",7,"WEEK 6",42,"2013-02-07","2013-02-07"],["CDISCPILOT01","SV","01-708-1342",8,"WEEK 8",56,"2013-02-23","2013-02-23"],["CDISCPILOT01","SV","01-708-1342",8.1,"WEEK 10 (T)",70,"2013-03-12","2013-03-12"],["CDISCPILOT01","SV","01-708-1342",9,"WEEK 12",84,"2013-03-21","2013-03-21"],["CDISCPILOT01","SV","01-708-1342",9.1,"WEEK 14 (T)",98,"2013-04-05","2013-04-05"],["CDISCPILOT01","SV","01-708-1342",10,"WEEK 16",112,"2013-04-20","2013-04-20"],["CDISCPILOT01","SV","01-708-1342",10.1,"WEEK 18 (T)",126,"2013-05-04","2013-05-04"],["CDISCPILOT01","SV","01-708-1342",11,"WEEK 20",140,"2013-05-18","2013-05-18"],["CDISCPILOT01","SV","01-708-1342",11.1,"WEEK 22 (T)",154,"2013-06-04","2013-06-04"],["CDISCPILOT01","SV","01-708-1342",12,"WEEK 24",168,"2013-06-15","2013-06-15"],["CDISCPILOT01","SV","01-708-1342",13,"WEEK 26",182,"2013-06-28","2013-06-28"],["CDISCPILOT01","SV","01-708-1347",1,"SCREENING 1",-7,"2013-04-11","2013-04-11"],["CDISCPILOT01","SV","01-708-1347",2,"SCREENING 2",-1,"2013-04-18","2013-04-18"],["CDISCPILOT01","SV","01-708-1347",3,"BASELINE",1,"2013-04-20","2013-04-20"],["CDISCPILOT01","SV","01-708-1347",3.5,"AMBUL ECG PLACEMENT",13,"2013-05-03","2013-05-03"],["CDISCPILOT01","SV","01-708-1347",4,"WEEK 2",14,"2013-05-04","2013-05-04"],["CDISCPILOT01","SV","01-708-1347",5,"WEEK 4",28,"2013-05-16","2013-05-16"],["CDISCPILOT01","SV","01-708-1347",6,"AMBUL ECG REMOVAL",30,"2013-05-18","2013-05-18"],["CDISCPILOT01","SV","01-708-1347",7,"WEEK 6",42,"2013-05-30","2013-05-30"],["CDISCPILOT01","SV","01-708-1347",8,"WEEK 8",56,"2013-06-13","2013-06-13"],["CDISCPILOT01","SV","01-708-1347",9,"WEEK 12",84,"2013-06-18","2013-06-18"],["CDISCPILOT01","SV","01-708-1347",101,"AE FOLLOW-UP",null,"2013-08-02","2013-08-02"],["CDISCPILOT01","SV","01-708-1348",1,"SCREENING 1",-7,"2013-07-28","2013-07-28"],["CDISCPILOT01","SV","01-708-1348",1.1,"UNSCHEDULED 1.1",null,"2013-08-03","2013-08-03"],["CDISCPILOT01","SV","01-708-1348",1.2,"UNSCHEDULED 1.2",null,"2013-07-27","2013-07-27"],["CDISCPILOT01","SV","01-708-1348",2,"SCREENING 2",-1,"2013-08-03","2013-08-03"],["CDISCPILOT01","SV","01-708-1348",3,"BASELINE",1,"2013-08-05","2013-08-05"],["CDISCPILOT01","SV","01-708-1348",3.5,"AMBUL ECG PLACEMENT",13,"2013-08-18","2013-08-18"],["CDISCPILOT01","SV","01-708-1348",4,"WEEK 2",14,"2013-08-19","2013-08-19"],["CDISCPILOT01","SV","01-708-1348",5,"WEEK 4",28,"2013-08-31","2013-08-31"],["CDISCPILOT01","SV","01-708-1348",5.1,"UNSCHEDULED 5.1",null,"2013-09-02","2013-09-02"],["CDISCPILOT01","SV","01-708-1348",6,"AMBUL ECG REMOVAL",30,"2013-09-02","2013-09-02"],["CDISCPILOT01","SV","01-708-1348",7,"WEEK 6",42,"2013-09-15","2013-09-15"],["CDISCPILOT01","SV","01-708-1348",8,"WEEK 8",56,"2013-10-06","2013-10-06"],["CDISCPILOT01","SV","01-708-1348",8.1,"WEEK 10 (T)",70,"2013-10-21","2013-10-21"],["CDISCPILOT01","SV","01-708-1348",9,"WEEK 12",84,"2013-11-04","2013-11-04"],["CDISCPILOT01","SV","01-708-1348",9.1,"WEEK 14 (T)",98,"2013-11-18","2013-11-18"],["CDISCPILOT01","SV","01-708-1348",10,"WEEK 16",112,"2013-12-01","2013-12-01"],["CDISCPILOT01","SV","01-708-1348",10.1,"WEEK 18 (T)",126,"2013-12-19","2013-12-19"],["CDISCPILOT01","SV","01-708-1348",11,"WEEK 20",140,"2013-12-28","2013-12-28"],["CDISCPILOT01","SV","01-708-1348",11.1,"WEEK 22 (T)",154,"2014-01-16","2014-01-16"],["CDISCPILOT01","SV","01-708-1348",12,"WEEK 24",168,"2014-02-03","2014-02-03"],["CDISCPILOT01","SV","01-708-1348",12.1,"UNSCHEDULED 12.1",null,"2014-02-03","2014-02-03"],["CDISCPILOT01","SV","01-708-1348",13,"WEEK 26",182,"2014-02-13","2014-02-13"],["CDISCPILOT01","SV","01-708-1352",1,"SCREENING 1",-7,"2013-09-16","2013-09-16"],["CDISCPILOT01","SV","01-708-1353",1,"SCREENING 1",-7,"2013-06-17","2013-06-17"],["CDISCPILOT01","SV","01-708-1353",2,"SCREENING 2",-1,"2013-07-02","2013-07-02"],["CDISCPILOT01","SV","01-708-1353",3,"BASELINE",1,"2013-07-04","2013-07-04"],["CDISCPILOT01","SV","01-708-1353",3.5,"AMBUL ECG PLACEMENT",13,"2013-07-17","2013-07-17"],["CDISCPILOT01","SV","01-708-1353",4,"WEEK 2",14,"2013-07-18","2013-07-18"],["CDISCPILOT01","SV","01-708-1353",5,"WEEK 4",28,"2013-08-04","2013-08-04"],["CDISCPILOT01","SV","01-708-1353",6,"AMBUL ECG REMOVAL",30,"2013-08-07","2013-08-07"],["CDISCPILOT01","SV","01-708-1353",7,"WEEK 6",42,"2013-08-18","2013-08-18"],["CDISCPILOT01","SV","01-708-1353",8,"WEEK 8",56,"2013-09-10","2013-09-10"],["CDISCPILOT01","SV","01-708-1372",1,"SCREENING 1",-7,"2013-04-03","2013-04-03"],["CDISCPILOT01","SV","01-708-1372",2,"SCREENING 2",-1,"2013-04-10","2013-04-10"],["CDISCPILOT01","SV","01-708-1372",3,"BASELINE",1,"2013-04-12","2013-04-12"],["CDISCPILOT01","SV","01-708-1372",4,"WEEK 2",14,"2013-05-10","2013-05-10"],["CDISCPILOT01","SV","01-708-1378",1,"SCREENING 1",-7,"2013-08-24","2013-08-24"],["CDISCPILOT01","SV","01-708-1378",2,"SCREENING 2",-1,"2013-09-01","2013-09-01"],["CDISCPILOT01","SV","01-708-1378",3,"BASELINE",1,"2013-09-03","2013-09-03"],["CDISCPILOT01","SV","01-708-1378",3.5,"AMBUL ECG PLACEMENT",13,"2013-09-20","2013-09-20"],["CDISCPILOT01","SV","01-708-1378",4,"WEEK 2",14,"2013-09-21","2013-09-21"],["CDISCPILOT01","SV","01-708-1378",5,"WEEK 4",28,"2013-10-05","2013-10-05"],["CDISCPILOT01","SV","01-708-1378",7,"WEEK 6",42,"2013-10-19","2013-10-19"],["CDISCPILOT01","SV","01-708-1378",8,"WEEK 8",56,"2013-11-05","2013-11-05"],["CDISCPILOT01","SV","01-708-1378",8.1,"WEEK 10 (T)",70,"2013-11-19","2013-11-19"],["CDISCPILOT01","SV","01-708-1378",9,"WEEK 12",84,"2013-12-02","2013-12-02"],["CDISCPILOT01","SV","01-708-1378",10,"WEEK 16",112,"2014-01-12","2014-01-12"],["CDISCPILOT01","SV","01-708-1378",10.1,"WEEK 18 (T)",126,"2014-01-12","2014-01-12"],["CDISCPILOT01","SV","01-708-1378",11,"WEEK 20",140,"2014-01-28","2014-01-28"],["CDISCPILOT01","SV","01-708-1406",1,"SCREENING 1",-7,"2013-12-06","2013-12-06"],["CDISCPILOT01","SV","01-708-1406",2,"SCREENING 2",-1,"2013-12-24","2013-12-24"],["CDISCPILOT01","SV","01-708-1406",3,"BASELINE",1,"2013-12-26","2013-12-26"],["CDISCPILOT01","SV","01-708-1406",3.5,"AMBUL ECG PLACEMENT",13,"2014-01-08","2014-01-08"],["CDISCPILOT01","SV","01-708-1406",4,"WEEK 2",14,"2014-01-09","2014-01-09"],["CDISCPILOT01","SV","01-708-1406",5,"WEEK 4",28,"2014-01-22","2014-01-22"],["CDISCPILOT01","SV","01-708-1406",6,"AMBUL ECG REMOVAL",30,"2014-01-24","2014-01-24"],["CDISCPILOT01","SV","01-708-1406",7,"WEEK 6",42,"2014-02-10","2014-02-10"],["CDISCPILOT01","SV","01-708-1406",8,"WEEK 8",56,"2014-02-24","2014-02-24"],["CDISCPILOT01","SV","01-708-1406",8.1,"WEEK 10 (T)",70,"2014-03-11","2014-03-11"],["CDISCPILOT01","SV","01-708-1406",9,"WEEK 12",84,"2014-03-19","2014-03-19"],["CDISCPILOT01","SV","01-708-1406",9.1,"WEEK 14 (T)",98,"2014-04-07","2014-04-07"],["CDISCPILOT01","SV","01-708-1406",10,"WEEK 16",112,"2014-04-16","2014-04-16"],["CDISCPILOT01","SV","01-708-1406",10.1,"WEEK 18 (T)",126,"2014-05-06","2014-05-06"],["CDISCPILOT01","SV","01-708-1406",11,"WEEK 20",140,"2014-05-16","2014-05-16"],["CDISCPILOT01","SV","01-708-1406",11.1,"WEEK 22 (T)",154,"2014-05-13","2014-05-13"],["CDISCPILOT01","SV","01-708-1406",12,"WEEK 24",168,"2014-06-16","2014-06-16"],["CDISCPILOT01","SV","01-708-1406",13,"WEEK 26",182,"2014-07-02","2014-07-02"],["CDISCPILOT01","SV","01-708-1428",1,"SCREENING 1",-7,"2013-11-02","2013-11-02"],["CDISCPILOT01","SV","01-708-1428",2,"SCREENING 2",-1,"2013-11-07","2013-11-07"],["CDISCPILOT01","SV","01-708-1428",3,"BASELINE",1,"2013-11-09","2013-11-09"],["CDISCPILOT01","SV","01-708-1428",3.5,"AMBUL ECG PLACEMENT",13,"2013-11-22","2013-11-22"],["CDISCPILOT01","SV","01-708-1428",4,"WEEK 2",14,"2013-11-23","2013-11-23"],["CDISCPILOT01","SV","01-708-1428",5,"WEEK 4",28,"2013-12-10","2013-12-10"],["CDISCPILOT01","SV","01-708-1428",6,"AMBUL ECG REMOVAL",30,"2013-12-12","2013-12-12"],["CDISCPILOT01","SV","01-708-1428",7,"WEEK 6",42,"2013-12-26","2013-12-26"],["CDISCPILOT01","SV","01-708-1428",8,"WEEK 8",56,"2014-01-31","2014-01-31"],["CDISCPILOT01","SV","01-708-1428",101,"AE FOLLOW-UP",null,"2014-01-31","2014-01-31"],["CDISCPILOT01","SV","01-709-1001",1,"SCREENING 1",-7,"2013-09-20","2013-09-20"],["CDISCPILOT01","SV","01-709-1001",1.1,"UNSCHEDULED 1.1",null,"2013-10-06","2013-10-06"],["CDISCPILOT01","SV","01-709-1001",2,"SCREENING 2",-1,"2013-10-06","2013-10-06"],["CDISCPILOT01","SV","01-709-1001",3,"BASELINE",1,"2013-10-08","2013-10-08"],["CDISCPILOT01","SV","01-709-1001",3.5,"AMBUL ECG PLACEMENT",13,"2013-10-21","2013-10-21"],["CDISCPILOT01","SV","01-709-1001",4,"WEEK 2",14,"2013-10-22","2013-10-22"],["CDISCPILOT01","SV","01-709-1001",5,"WEEK 4",28,"2013-11-02","2013-11-02"],["CDISCPILOT01","SV","01-709-1001",6,"AMBUL ECG REMOVAL",30,"2013-11-04","2013-11-04"],["CDISCPILOT01","SV","01-709-1001",7,"WEEK 6",42,"2013-11-19","2013-11-19"],["CDISCPILOT01","SV","01-709-1001",8,"WEEK 8",56,"2013-12-03","2013-12-03"],["CDISCPILOT01","SV","01-709-1001",8.1,"WEEK 10 (T)",70,"2013-12-14","2013-12-14"],["CDISCPILOT01","SV","01-709-1001",9,"WEEK 12",84,"2013-12-31","2013-12-31"],["CDISCPILOT01","SV","01-709-1001",9.1,"WEEK 14 (T)",98,"2014-01-11","2014-01-11"],["CDISCPILOT01","SV","01-709-1001",10,"WEEK 16",112,"2014-01-28","2014-01-28"],["CDISCPILOT01","SV","01-709-1001",10.1,"WEEK 18 (T)",126,"2014-02-11","2014-02-11"],["CDISCPILOT01","SV","01-709-1001",11,"WEEK 20",140,"2014-02-25","2014-02-25"],["CDISCPILOT01","SV","01-709-1001",11.1,"WEEK 22 (T)",154,"2014-03-07","2014-03-07"],["CDISCPILOT01","SV","01-709-1001",12,"WEEK 24",168,"2014-03-17","2014-03-17"],["CDISCPILOT01","SV","01-709-1001",13,"WEEK 26",182,"2014-04-08","2014-04-08"],["CDISCPILOT01","SV","01-709-1007",1,"SCREENING 1",-7,"2012-07-21","2012-07-21"],["CDISCPILOT01","SV","01-709-1007",1.1,"UNSCHEDULED 1.1",null,"2012-07-21","2012-07-21"],["CDISCPILOT01","SV","01-709-1007",2,"SCREENING 2",-1,"2012-07-29","2012-07-29"],["CDISCPILOT01","SV","01-709-1007",3,"BASELINE",1,"2012-07-31","2012-07-31"],["CDISCPILOT01","SV","01-709-1007",3.5,"AMBUL ECG PLACEMENT",13,"2012-08-17","2012-08-17"],["CDISCPILOT01","SV","01-709-1007",4,"WEEK 2",14,"2012-08-18","2012-08-18"],["CDISCPILOT01","SV","01-709-1007",5,"WEEK 4",28,"2012-09-01","2012-09-01"],["CDISCPILOT01","SV","01-709-1007",101,"AE FOLLOW-UP",null,"2012-09-07","2012-09-07"],["CDISCPILOT01","SV","01-709-1020",1,"SCREENING 1",-7,"2012-11-22","2012-11-22"],["CDISCPILOT01","SV","01-709-1020",2,"SCREENING 2",-1,"2012-11-29","2012-11-29"],["CDISCPILOT01","SV","01-709-1020",3,"BASELINE",1,"2012-12-01","2012-12-01"],["CDISCPILOT01","SV","01-709-1020",4,"WEEK 2",14,"2012-12-15","2012-12-15"],["CDISCPILOT01","SV","01-709-1020",5,"WEEK 4",28,"2012-12-27","2012-12-27"],["CDISCPILOT01","SV","01-709-1020",7,"WEEK 6",42,"2013-01-12","2013-01-12"],["CDISCPILOT01","SV","01-709-1020",8,"WEEK 8",56,"2013-01-26","2013-01-26"],["CDISCPILOT01","SV","01-709-1020",8.1,"WEEK 10 (T)",70,"2013-02-09","2013-02-09"],["CDISCPILOT01","SV","01-709-1020",9,"WEEK 12",84,"2013-02-23","2013-02-23"],["CDISCPILOT01","SV","01-709-1020",9.1,"WEEK 14 (T)",98,"2013-03-08","2013-03-08"],["CDISCPILOT01","SV","01-709-1020",10,"WEEK 16",112,"2013-03-23","2013-03-23"],["CDISCPILOT01","SV","01-709-1020",10.1,"WEEK 18 (T)",126,"2013-04-13","2013-04-13"],["CDISCPILOT01","SV","01-709-1020",11,"WEEK 20",140,"2013-04-20","2013-04-20"],["CDISCPILOT01","SV","01-709-1020",11.1,"WEEK 22 (T)",154,"2013-05-03","2013-05-03"],["CDISCPILOT01","SV","01-709-1020",12,"WEEK 24",168,"2013-05-18","2013-05-18"],["CDISCPILOT01","SV","01-709-1020",13,"WEEK 26",182,"2013-06-01","2013-06-01"],["CDISCPILOT01","SV","01-709-1029",1,"SCREENING 1",-7,"2012-12-10","2012-12-10"],["CDISCPILOT01","SV","01-709-1029",2,"SCREENING 2",-1,"2012-12-23","2012-12-23"],["CDISCPILOT01","SV","01-709-1029",3,"BASELINE",1,"2012-12-25","2012-12-25"],["CDISCPILOT01","SV","01-709-1029",3.5,"AMBUL ECG PLACEMENT",13,"2013-01-08","2013-01-08"],["CDISCPILOT01","SV","01-709-1029",4,"WEEK 2",14,"2013-01-09","2013-01-09"],["CDISCPILOT01","SV","01-709-1029",5,"WEEK 4",28,"2013-01-21","2013-01-21"],["CDISCPILOT01","SV","01-709-1029",6,"AMBUL ECG REMOVAL",30,"2013-01-23","2013-01-23"],["CDISCPILOT01","SV","01-709-1029",7,"WEEK 6",42,"2013-02-06","2013-02-06"],["CDISCPILOT01","SV","01-709-1029",8,"WEEK 8",56,"2013-02-19","2013-02-19"],["CDISCPILOT01","SV","01-709-1029",8.1,"WEEK 10 (T)",70,"2013-03-06","2013-03-06"],["CDISCPILOT01","SV","01-709-1029",9,"WEEK 12",84,"2013-03-20","2013-03-20"],["CDISCPILOT01","SV","01-709-1029",9.1,"WEEK 14 (T)",98,"2013-04-06","2013-04-06"],["CDISCPILOT01","SV","01-709-1029",10,"WEEK 16",112,"2013-04-16","2013-04-16"],["CDISCPILOT01","SV","01-709-1029",10.1,"WEEK 18 (T)",126,"2013-05-01","2013-05-01"],["CDISCPILOT01","SV","01-709-1029",11,"WEEK 20",140,"2013-05-15","2013-05-15"],["CDISCPILOT01","SV","01-709-1029",11.1,"WEEK 22 (T)",154,"2013-05-28","2013-05-28"],["CDISCPILOT01","SV","01-709-1029",12,"WEEK 24",168,"2013-06-12","2013-06-12"],["CDISCPILOT01","SV","01-709-1029",13,"WEEK 26",182,"2013-06-26","2013-06-26"],["CDISCPILOT01","SV","01-709-1081",1,"SCREENING 1",-7,"2014-01-09","2014-01-09"],["CDISCPILOT01","SV","01-709-1081",1.1,"UNSCHEDULED 1.1",null,"2014-01-05","2014-01-05"],["CDISCPILOT01","SV","01-709-1081",2,"SCREENING 2",-1,"2014-01-17","2014-01-17"],["CDISCPILOT01","SV","01-709-1081",3,"BASELINE",1,"2014-01-18","2014-01-18"],["CDISCPILOT01","SV","01-709-1081",3.5,"AMBUL ECG PLACEMENT",13,"2014-01-31","2014-01-31"],["CDISCPILOT01","SV","01-709-1081",4,"WEEK 2",14,"2014-02-01","2014-02-01"],["CDISCPILOT01","SV","01-709-1081",5,"WEEK 4",28,"2014-02-10","2014-02-10"],["CDISCPILOT01","SV","01-709-1081",6,"AMBUL ECG REMOVAL",30,"2014-02-12","2014-02-12"],["CDISCPILOT01","SV","01-709-1081",7,"WEEK 6",42,"2014-03-01","2014-03-01"],["CDISCPILOT01","SV","01-709-1081",8,"WEEK 8",56,"2014-03-15","2014-03-15"],["CDISCPILOT01","SV","01-709-1081",8.1,"WEEK 10 (T)",70,"2014-03-29","2014-03-29"],["CDISCPILOT01","SV","01-709-1081",9,"WEEK 12",84,"2014-04-21","2014-04-21"],["CDISCPILOT01","SV","01-709-1081",9.1,"WEEK 14 (T)",98,"2014-04-26","2014-04-26"],["CDISCPILOT01","SV","01-709-1081",10,"WEEK 16",112,"2014-05-10","2014-05-10"],["CDISCPILOT01","SV","01-709-1088",1,"SCREENING 1",-7,"2014-03-30","2014-03-30"],["CDISCPILOT01","SV","01-709-1088",2,"SCREENING 2",-1,"2014-04-10","2014-04-10"],["CDISCPILOT01","SV","01-709-1088",3,"BASELINE",1,"2014-04-12","2014-04-12"],["CDISCPILOT01","SV","01-709-1088",3.5,"AMBUL ECG PLACEMENT",13,"2014-04-25","2014-04-25"],["CDISCPILOT01","SV","01-709-1088",4,"WEEK 2",14,"2014-04-26","2014-04-26"],["CDISCPILOT01","SV","01-709-1088",5,"WEEK 4",28,"2014-05-08","2014-05-08"],["CDISCPILOT01","SV","01-709-1088",6,"AMBUL ECG REMOVAL",30,"2014-05-10","2014-05-10"],["CDISCPILOT01","SV","01-709-1088",7,"WEEK 6",42,"2014-05-22","2014-05-22"],["CDISCPILOT01","SV","01-709-1088",8,"WEEK 8",56,"2014-06-01","2014-06-01"],["CDISCPILOT01","SV","01-709-1088",8.1,"WEEK 10 (T)",70,"2014-06-15","2014-06-15"],["CDISCPILOT01","SV","01-709-1088",9,"WEEK 12",84,"2014-06-29","2014-06-29"],["CDISCPILOT01","SV","01-709-1088",9.1,"WEEK 14 (T)",98,"2014-07-10","2014-07-10"],["CDISCPILOT01","SV","01-709-1088",10,"WEEK 16",112,"2014-08-02","2014-08-02"],["CDISCPILOT01","SV","01-709-1088",10.1,"WEEK 18 (T)",126,"2014-08-17","2014-08-17"],["CDISCPILOT01","SV","01-709-1088",11,"WEEK 20",140,"2014-08-23","2014-08-23"],["CDISCPILOT01","SV","01-709-1088",11.1,"WEEK 22 (T)",154,"2014-09-06","2014-09-06"],["CDISCPILOT01","SV","01-709-1088",12,"WEEK 24",168,"2014-09-27","2014-09-27"],["CDISCPILOT01","SV","01-709-1088",13,"WEEK 26",182,"2014-10-09","2014-10-09"],["CDISCPILOT01","SV","01-709-1099",1,"SCREENING 1",-7,"2013-10-14","2013-10-14"],["CDISCPILOT01","SV","01-709-1099",2,"SCREENING 2",-1,"2013-10-23","2013-10-23"],["CDISCPILOT01","SV","01-709-1099",3,"BASELINE",1,"2013-10-25","2013-10-25"],["CDISCPILOT01","SV","01-709-1099",3.5,"AMBUL ECG PLACEMENT",13,"2013-11-11","2013-11-11"],["CDISCPILOT01","SV","01-709-1099",4,"WEEK 2",14,"2013-11-12","2013-11-12"],["CDISCPILOT01","SV","01-709-1099",5,"WEEK 4",28,"2013-11-27","2013-11-27"],["CDISCPILOT01","SV","01-709-1099",6,"AMBUL ECG REMOVAL",30,"2013-11-29","2013-11-29"],["CDISCPILOT01","SV","01-709-1099",7,"WEEK 6",42,"2013-12-11","2013-12-11"],["CDISCPILOT01","SV","01-709-1099",8,"WEEK 8",56,"2013-12-26","2013-12-26"],["CDISCPILOT01","SV","01-709-1099",8.1,"WEEK 10 (T)",70,"2014-01-08","2014-01-08"],["CDISCPILOT01","SV","01-709-1099",9,"WEEK 12",84,"2014-01-20","2014-01-20"],["CDISCPILOT01","SV","01-709-1099",9.1,"WEEK 14 (T)",98,"2014-02-03","2014-02-03"],["CDISCPILOT01","SV","01-709-1099",10,"WEEK 16",112,"2014-02-14","2014-02-14"],["CDISCPILOT01","SV","01-709-1099",10.1,"WEEK 18 (T)",126,"2014-02-24","2014-02-24"],["CDISCPILOT01","SV","01-709-1099",11,"WEEK 20",140,"2014-03-14","2014-03-14"],["CDISCPILOT01","SV","01-709-1099",11.1,"WEEK 22 (T)",154,"2014-03-25","2014-03-25"],["CDISCPILOT01","SV","01-709-1099",12,"WEEK 24",168,"2014-04-11","2014-04-11"],["CDISCPILOT01","SV","01-709-1099",13,"WEEK 26",182,"2014-04-25","2014-04-25"],["CDISCPILOT01","SV","01-709-1102",1,"SCREENING 1",-7,"2013-01-07","2013-01-07"],["CDISCPILOT01","SV","01-709-1102",1.1,"UNSCHEDULED 1.1",null,"2013-01-13","2013-01-13"],["CDISCPILOT01","SV","01-709-1102",2,"SCREENING 2",-1,"2013-01-13","2013-01-13"],["CDISCPILOT01","SV","01-709-1102",3,"BASELINE",1,"2013-01-15","2013-01-15"],["CDISCPILOT01","SV","01-709-1102",3.5,"AMBUL ECG PLACEMENT",13,"2013-01-30","2013-01-30"],["CDISCPILOT01","SV","01-709-1102",4,"WEEK 2",14,"2013-01-31","2013-01-31"],["CDISCPILOT01","SV","01-709-1102",5,"WEEK 4",28,"2013-02-11","2013-02-11"],["CDISCPILOT01","SV","01-709-1102",6,"AMBUL ECG REMOVAL",30,"2013-02-13","2013-02-13"],["CDISCPILOT01","SV","01-709-1102",7,"WEEK 6",42,"2013-02-27","2013-02-27"],["CDISCPILOT01","SV","01-709-1102",8,"WEEK 8",56,"2013-03-12","2013-03-12"],["CDISCPILOT01","SV","01-709-1102",9,"WEEK 12",84,"2013-03-31","2013-03-31"],["CDISCPILOT01","SV","01-709-1102",101,"AE FOLLOW-UP",null,"2013-05-12","2013-05-12"],["CDISCPILOT01","SV","01-709-1168",1,"SCREENING 1",-7,"2013-07-25","2013-07-25"],["CDISCPILOT01","SV","01-709-1168",2,"SCREENING 2",-1,"2013-07-31","2013-07-31"],["CDISCPILOT01","SV","01-709-1168",3,"BASELINE",1,"2013-08-02","2013-08-02"],["CDISCPILOT01","SV","01-709-1168",3.5,"AMBUL ECG PLACEMENT",13,"2013-08-16","2013-08-16"],["CDISCPILOT01","SV","01-709-1168",4,"WEEK 2",14,"2013-08-17","2013-08-17"],["CDISCPILOT01","SV","01-709-1168",5,"WEEK 4",28,"2013-08-30","2013-08-30"],["CDISCPILOT01","SV","01-709-1168",7,"WEEK 6",42,"2013-09-13","2013-09-13"],["CDISCPILOT01","SV","01-709-1168",8,"WEEK 8",56,"2013-09-27","2013-09-27"],["CDISCPILOT01","SV","01-709-1168",101,"AE FOLLOW-UP",null,"2013-11-01","2013-11-01"],["CDISCPILOT01","SV","01-709-1217",1,"SCREENING 1",-7,"2013-02-16","2013-02-16"],["CDISCPILOT01","SV","01-709-1217",2,"SCREENING 2",-1,"2013-03-02","2013-03-02"],["CDISCPILOT01","SV","01-709-1217",3,"BASELINE",1,"2013-03-04","2013-03-04"],["CDISCPILOT01","SV","01-709-1217",3.5,"AMBUL ECG PLACEMENT",13,"2013-03-18","2013-03-18"],["CDISCPILOT01","SV","01-709-1217",4,"WEEK 2",14,"2013-03-19","2013-03-19"],["CDISCPILOT01","SV","01-709-1217",5,"WEEK 4",28,"2013-03-30","2013-03-30"],["CDISCPILOT01","SV","01-709-1217",6,"AMBUL ECG REMOVAL",30,"2013-04-01","2013-04-01"],["CDISCPILOT01","SV","01-709-1217",7,"WEEK 6",42,"2013-04-13","2013-04-13"],["CDISCPILOT01","SV","01-709-1217",8,"WEEK 8",56,"2013-04-29","2013-04-29"],["CDISCPILOT01","SV","01-709-1217",8.1,"WEEK 10 (T)",70,"2013-05-13","2013-05-13"],["CDISCPILOT01","SV","01-709-1217",9,"WEEK 12",84,"2013-05-25","2013-05-25"],["CDISCPILOT01","SV","01-709-1217",9.1,"WEEK 14 (T)",98,"2013-06-11","2013-06-11"],["CDISCPILOT01","SV","01-709-1217",10,"WEEK 16",112,"2013-06-25","2013-06-25"],["CDISCPILOT01","SV","01-709-1224",1,"SCREENING 1",-7,"2013-11-18","2013-11-18"],["CDISCPILOT01","SV","01-709-1237",1,"SCREENING 1",-7,"2014-01-17","2014-01-17"],["CDISCPILOT01","SV","01-709-1238",1,"SCREENING 1",-7,"2013-05-02","2013-05-02"],["CDISCPILOT01","SV","01-709-1238",2,"SCREENING 2",-1,"2013-05-13","2013-05-13"],["CDISCPILOT01","SV","01-709-1238",3,"BASELINE",1,"2013-05-15","2013-05-15"],["CDISCPILOT01","SV","01-709-1238",3.5,"AMBUL ECG PLACEMENT",13,"2013-05-28","2013-05-28"],["CDISCPILOT01","SV","01-709-1238",4,"WEEK 2",14,"2013-05-29","2013-05-29"],["CDISCPILOT01","SV","01-709-1238",5,"WEEK 4",28,"2013-06-19","2013-06-19"],["CDISCPILOT01","SV","01-709-1238",6,"AMBUL ECG REMOVAL",30,"2013-06-25","2013-06-25"],["CDISCPILOT01","SV","01-709-1238",7,"WEEK 6",42,"2013-06-26","2013-06-26"],["CDISCPILOT01","SV","01-709-1238",8,"WEEK 8",56,"2013-07-02","2013-07-02"],["CDISCPILOT01","SV","01-709-1238",8.1,"WEEK 10 (T)",70,"2013-07-24","2013-07-24"],["CDISCPILOT01","SV","01-709-1238",9,"WEEK 12",84,"2013-08-07","2013-08-07"],["CDISCPILOT01","SV","01-709-1238",101,"AE FOLLOW-UP",null,"2013-08-13","2013-08-13"],["CDISCPILOT01","SV","01-709-1259",1,"SCREENING 1",-7,"2013-01-13","2013-01-13"],["CDISCPILOT01","SV","01-709-1259",2,"SCREENING 2",-1,"2013-01-24","2013-01-24"],["CDISCPILOT01","SV","01-709-1259",3,"BASELINE",1,"2013-01-26","2013-01-26"],["CDISCPILOT01","SV","01-709-1259",3.5,"AMBUL ECG PLACEMENT",13,"2013-02-09","2013-02-09"],["CDISCPILOT01","SV","01-709-1259",4,"WEEK 2",14,"2013-02-10","2013-02-10"],["CDISCPILOT01","SV","01-709-1259",5,"WEEK 4",28,"2013-02-22","2013-02-22"],["CDISCPILOT01","SV","01-709-1259",6,"AMBUL ECG REMOVAL",30,"2013-02-24","2013-02-24"],["CDISCPILOT01","SV","01-709-1259",7,"WEEK 6",42,"2013-03-08","2013-03-08"],["CDISCPILOT01","SV","01-709-1259",8,"WEEK 8",56,"2013-03-23","2013-03-23"],["CDISCPILOT01","SV","01-709-1259",8.1,"WEEK 10 (T)",70,"2013-04-05","2013-04-05"],["CDISCPILOT01","SV","01-709-1259",9,"WEEK 12",84,"2013-04-20","2013-04-20"],["CDISCPILOT01","SV","01-709-1259",9.1,"WEEK 14 (T)",98,"2013-05-03","2013-05-03"],["CDISCPILOT01","SV","01-709-1259",10,"WEEK 16",112,"2013-05-11","2013-05-11"],["CDISCPILOT01","SV","01-709-1259",10.1,"WEEK 18 (T)",126,"2013-05-25","2013-05-25"],["CDISCPILOT01","SV","01-709-1259",11,"WEEK 20",140,"2013-06-13","2013-06-13"],["CDISCPILOT01","SV","01-709-1285",1,"SCREENING 1",-7,"2013-03-17","2013-03-17"],["CDISCPILOT01","SV","01-709-1285",2,"SCREENING 2",-1,"2013-03-22","2013-03-22"],["CDISCPILOT01","SV","01-709-1285",3,"BASELINE",1,"2013-03-24","2013-03-24"],["CDISCPILOT01","SV","01-709-1285",3.5,"AMBUL ECG PLACEMENT",13,"2013-04-07","2013-04-07"],["CDISCPILOT01","SV","01-709-1285",4,"WEEK 2",14,"2013-04-08","2013-04-08"],["CDISCPILOT01","SV","01-709-1285",5,"WEEK 4",28,"2013-04-19","2013-04-19"],["CDISCPILOT01","SV","01-709-1285",6,"AMBUL ECG REMOVAL",30,"2013-04-21","2013-04-21"],["CDISCPILOT01","SV","01-709-1285",7,"WEEK 6",42,"2013-05-03","2013-05-03"],["CDISCPILOT01","SV","01-709-1285",8,"WEEK 8",56,"2013-05-19","2013-05-19"],["CDISCPILOT01","SV","01-709-1285",9,"WEEK 12",84,"2013-05-31","2013-05-31"],["CDISCPILOT01","SV","01-709-1301",1,"SCREENING 1",-7,"2013-07-14","2013-07-14"],["CDISCPILOT01","SV","01-709-1301",1.1,"UNSCHEDULED 1.1",null,"2013-07-14","2013-07-14"],["CDISCPILOT01","SV","01-709-1301",2,"SCREENING 2",-1,"2013-07-17","2013-07-17"],["CDISCPILOT01","SV","01-709-1301",3,"BASELINE",1,"2013-07-19","2013-07-19"],["CDISCPILOT01","SV","01-709-1301",3.5,"AMBUL ECG PLACEMENT",13,"2013-08-01","2013-08-01"],["CDISCPILOT01","SV","01-709-1301",4,"WEEK 2",14,"2013-08-02","2013-08-02"],["CDISCPILOT01","SV","01-709-1301",5,"WEEK 4",28,"2013-08-11","2013-08-11"],["CDISCPILOT01","SV","01-709-1301",6,"AMBUL ECG REMOVAL",30,"2013-08-13","2013-08-13"],["CDISCPILOT01","SV","01-709-1301",7,"WEEK 6",42,"2013-08-30","2013-08-30"],["CDISCPILOT01","SV","01-709-1301",8,"WEEK 8",56,"2013-09-13","2013-09-13"],["CDISCPILOT01","SV","01-709-1301",8.1,"WEEK 10 (T)",70,"2013-09-29","2013-09-29"],["CDISCPILOT01","SV","01-709-1301",9,"WEEK 12",84,"2013-10-13","2013-10-13"],["CDISCPILOT01","SV","01-709-1301",9.1,"WEEK 14 (T)",98,"2013-10-25","2013-10-25"],["CDISCPILOT01","SV","01-709-1301",10,"WEEK 16",112,"2013-11-08","2013-11-08"],["CDISCPILOT01","SV","01-709-1301",10.1,"WEEK 18 (T)",126,"2013-11-22","2013-11-22"],["CDISCPILOT01","SV","01-709-1301",11,"WEEK 20",140,"2013-12-06","2013-12-06"],["CDISCPILOT01","SV","01-709-1301",11.1,"WEEK 22 (T)",154,"2013-12-20","2013-12-20"],["CDISCPILOT01","SV","01-709-1301",12,"WEEK 24",168,"2014-01-04","2014-01-04"],["CDISCPILOT01","SV","01-709-1301",13,"WEEK 26",182,"2014-01-17","2014-01-17"],["CDISCPILOT01","SV","01-709-1306",1,"SCREENING 1",-7,"2014-01-19","2014-01-19"],["CDISCPILOT01","SV","01-709-1306",2,"SCREENING 2",-1,"2014-02-01","2014-02-01"],["CDISCPILOT01","SV","01-709-1306",3,"BASELINE",1,"2014-02-03","2014-02-03"],["CDISCPILOT01","SV","01-709-1306",3.5,"AMBUL ECG PLACEMENT",13,"2014-02-18","2014-02-18"],["CDISCPILOT01","SV","01-709-1306",4,"WEEK 2",14,"2014-02-19","2014-02-19"],["CDISCPILOT01","SV","01-709-1306",5,"WEEK 4",28,"2014-03-02","2014-03-02"],["CDISCPILOT01","SV","01-709-1306",6,"AMBUL ECG REMOVAL",30,"2014-03-04","2014-03-04"],["CDISCPILOT01","SV","01-709-1306",7,"WEEK 6",42,"2014-03-19","2014-03-19"],["CDISCPILOT01","SV","01-709-1306",8,"WEEK 8",56,"2014-04-02","2014-04-02"],["CDISCPILOT01","SV","01-709-1306",8.1,"WEEK 10 (T)",70,"2014-04-13","2014-04-13"],["CDISCPILOT01","SV","01-709-1306",9,"WEEK 12",84,"2014-04-30","2014-04-30"],["CDISCPILOT01","SV","01-709-1306",9.1,"WEEK 14 (T)",98,"2014-05-14","2014-05-14"],["CDISCPILOT01","SV","01-709-1306",10,"WEEK 16",112,"2014-05-28","2014-05-28"],["CDISCPILOT01","SV","01-709-1306",10.1,"WEEK 18 (T)",126,"2014-06-09","2014-06-09"],["CDISCPILOT01","SV","01-709-1306",11,"WEEK 20",140,"2014-06-25","2014-06-25"],["CDISCPILOT01","SV","01-709-1309",1,"SCREENING 1",-7,"2013-06-09","2013-06-09"],["CDISCPILOT01","SV","01-709-1309",1.1,"UNSCHEDULED 1.1",null,"2013-06-09","2013-06-09"],["CDISCPILOT01","SV","01-709-1309",2,"SCREENING 2",-1,"2013-06-17","2013-06-17"],["CDISCPILOT01","SV","01-709-1309",3,"BASELINE",1,"2013-06-19","2013-06-19"],["CDISCPILOT01","SV","01-709-1309",3.5,"AMBUL ECG PLACEMENT",13,"2013-06-30","2013-06-30"],["CDISCPILOT01","SV","01-709-1309",4,"WEEK 2",14,"2013-07-01","2013-07-01"],["CDISCPILOT01","SV","01-709-1309",5,"WEEK 4",28,"2013-07-16","2013-07-16"],["CDISCPILOT01","SV","01-709-1309",6,"AMBUL ECG REMOVAL",30,"2013-07-18","2013-07-18"],["CDISCPILOT01","SV","01-709-1309",7,"WEEK 6",42,"2013-07-31","2013-07-31"],["CDISCPILOT01","SV","01-709-1309",8,"WEEK 8",56,"2013-08-15","2013-08-15"],["CDISCPILOT01","SV","01-709-1309",8.1,"WEEK 10 (T)",70,"2013-08-29","2013-08-29"],["CDISCPILOT01","SV","01-709-1309",9,"WEEK 12",84,"2013-09-11","2013-09-11"],["CDISCPILOT01","SV","01-709-1309",9.1,"WEEK 14 (T)",98,"2013-09-23","2013-09-23"],["CDISCPILOT01","SV","01-709-1309",10,"WEEK 16",112,"2013-10-16","2013-10-16"],["CDISCPILOT01","SV","01-709-1309",10.1,"WEEK 18 (T)",126,"2013-10-28","2013-10-28"],["CDISCPILOT01","SV","01-709-1309",11,"WEEK 20",140,"2013-11-07","2013-11-07"],["CDISCPILOT01","SV","01-709-1309",11.1,"WEEK 22 (T)",154,"2013-11-25","2013-11-25"],["CDISCPILOT01","SV","01-709-1309",12,"WEEK 24",168,"2013-12-05","2013-12-05"],["CDISCPILOT01","SV","01-709-1309",13,"WEEK 26",182,"2013-12-19","2013-12-19"],["CDISCPILOT01","SV","01-709-1312",1,"SCREENING 1",-7,"2014-04-13","2014-04-13"],["CDISCPILOT01","SV","01-709-1312",1.1,"UNSCHEDULED 1.1",null,"2014-04-18","2014-04-18"],["CDISCPILOT01","SV","01-709-1312",2,"SCREENING 2",-1,"2014-04-18","2014-04-18"],["CDISCPILOT01","SV","01-709-1312",3,"BASELINE",1,"2014-04-20","2014-04-20"],["CDISCPILOT01","SV","01-709-1312",4,"WEEK 2",14,"2014-05-10","2014-05-10"],["CDISCPILOT01","SV","01-709-1312",5,"WEEK 4",28,"2014-05-17","2014-05-17"],["CDISCPILOT01","SV","01-709-1312",6,"AMBUL ECG REMOVAL",30,"2014-05-19","2014-05-19"],["CDISCPILOT01","SV","01-709-1312",7,"WEEK 6",42,"2014-06-02","2014-06-02"],["CDISCPILOT01","SV","01-709-1312",8,"WEEK 8",56,"2014-06-13","2014-06-13"],["CDISCPILOT01","SV","01-709-1312",8.1,"WEEK 10 (T)",70,"2014-07-03","2014-07-03"],["CDISCPILOT01","SV","01-709-1312",9,"WEEK 12",84,"2014-07-13","2014-07-13"],["CDISCPILOT01","SV","01-709-1312",9.1,"WEEK 14 (T)",98,"2014-07-25","2014-07-25"],["CDISCPILOT01","SV","01-709-1312",10,"WEEK 16",112,"2014-08-10","2014-08-10"],["CDISCPILOT01","SV","01-709-1312",10.1,"WEEK 18 (T)",126,"2014-08-28","2014-08-28"],["CDISCPILOT01","SV","01-709-1312",11,"WEEK 20",140,"2014-09-07","2014-09-07"],["CDISCPILOT01","SV","01-709-1312",11.1,"WEEK 22 (T)",154,"2014-09-14","2014-09-14"],["CDISCPILOT01","SV","01-709-1312",12,"WEEK 24",168,"2014-10-05","2014-10-05"],["CDISCPILOT01","SV","01-709-1312",13,"WEEK 26",182,"2014-10-19","2014-10-19"],["CDISCPILOT01","SV","01-709-1326",1,"SCREENING 1",-7,"2013-03-21","2013-03-21"],["CDISCPILOT01","SV","01-709-1326",2,"SCREENING 2",-1,"2013-04-03","2013-04-03"],["CDISCPILOT01","SV","01-709-1326",3,"BASELINE",1,"2013-04-05","2013-04-05"],["CDISCPILOT01","SV","01-709-1326",3.5,"AMBUL ECG PLACEMENT",13,"2013-04-17","2013-04-17"],["CDISCPILOT01","SV","01-709-1326",4,"WEEK 2",14,"2013-04-18","2013-04-18"],["CDISCPILOT01","SV","01-709-1326",5,"WEEK 4",28,"2013-05-01","2013-05-01"],["CDISCPILOT01","SV","01-709-1326",6,"AMBUL ECG REMOVAL",30,"2013-05-03","2013-05-03"],["CDISCPILOT01","SV","01-709-1326",7,"WEEK 6",42,"2013-05-18","2013-05-18"],["CDISCPILOT01","SV","01-709-1326",8,"WEEK 8",56,"2013-06-01","2013-06-01"],["CDISCPILOT01","SV","01-709-1326",8.1,"WEEK 10 (T)",70,"2013-06-12","2013-06-12"],["CDISCPILOT01","SV","01-709-1326",9,"WEEK 12",84,"2013-06-26","2013-06-26"],["CDISCPILOT01","SV","01-709-1326",9.1,"WEEK 14 (T)",98,"2013-07-11","2013-07-11"],["CDISCPILOT01","SV","01-709-1326",10,"WEEK 16",112,"2013-07-26","2013-07-26"],["CDISCPILOT01","SV","01-709-1326",10.1,"WEEK 18 (T)",126,"2013-08-07","2013-08-07"],["CDISCPILOT01","SV","01-709-1326",11,"WEEK 20",140,"2013-08-21","2013-08-21"],["CDISCPILOT01","SV","01-709-1326",11.1,"WEEK 22 (T)",154,"2013-09-05","2013-09-05"],["CDISCPILOT01","SV","01-709-1326",12,"WEEK 24",168,"2013-09-20","2013-09-20"],["CDISCPILOT01","SV","01-709-1326",13,"WEEK 26",182,"2013-10-02","2013-10-02"],["CDISCPILOT01","SV","01-709-1329",1,"SCREENING 1",-7,"2013-08-01","2013-08-01"],["CDISCPILOT01","SV","01-709-1329",1.1,"UNSCHEDULED 1.1",null,"2013-08-13","2013-08-13"],["CDISCPILOT01","SV","01-709-1329",2,"SCREENING 2",-1,"2013-08-13","2013-08-13"],["CDISCPILOT01","SV","01-709-1329",3,"BASELINE",1,"2013-08-15","2013-08-15"],["CDISCPILOT01","SV","01-709-1329",4,"WEEK 2",14,"2013-08-29","2013-08-29"],["CDISCPILOT01","SV","01-709-1339",1,"SCREENING 1",-7,"2012-12-15","2012-12-15"],["CDISCPILOT01","SV","01-709-1339",2,"SCREENING 2",-1,"2012-12-21","2012-12-21"],["CDISCPILOT01","SV","01-709-1339",3,"BASELINE",1,"2012-12-23","2012-12-23"],["CDISCPILOT01","SV","01-709-1339",3.5,"AMBUL ECG PLACEMENT",13,"2013-01-04","2013-01-04"],["CDISCPILOT01","SV","01-709-1339",4,"WEEK 2",14,"2013-01-05","2013-01-05"],["CDISCPILOT01","SV","01-709-1339",5,"WEEK 4",28,"2013-01-20","2013-01-20"],["CDISCPILOT01","SV","01-709-1339",6,"AMBUL ECG REMOVAL",30,"2013-01-22","2013-01-22"],["CDISCPILOT01","SV","01-709-1339",7,"WEEK 6",42,"2013-02-03","2013-02-03"],["CDISCPILOT01","SV","01-709-1339",8,"WEEK 8",56,"2013-02-19","2013-02-19"],["CDISCPILOT01","SV","01-709-1339",8.1,"WEEK 10 (T)",70,"2013-03-09","2013-03-09"],["CDISCPILOT01","SV","01-709-1339",9,"WEEK 12",84,"2013-03-17","2013-03-17"],["CDISCPILOT01","SV","01-709-1339",9.1,"WEEK 14 (T)",98,"2013-03-31","2013-03-31"],["CDISCPILOT01","SV","01-709-1339",10,"WEEK 16",112,"2013-04-14","2013-04-14"],["CDISCPILOT01","SV","01-709-1339",10.1,"WEEK 18 (T)",126,"2013-04-28","2013-04-28"],["CDISCPILOT01","SV","01-709-1339",11,"WEEK 20",140,"2013-05-12","2013-05-12"],["CDISCPILOT01","SV","01-709-1339",11.1,"WEEK 22 (T)",154,"2013-05-25","2013-05-25"],["CDISCPILOT01","SV","01-709-1339",12,"WEEK 24",168,"2013-06-08","2013-06-08"],["CDISCPILOT01","SV","01-709-1339",13,"WEEK 26",182,"2013-06-24","2013-06-24"],["CDISCPILOT01","SV","01-709-1424",1,"SCREENING 1",-7,"2013-02-15","2013-02-15"],["CDISCPILOT01","SV","01-709-1424",2,"SCREENING 2",-1,"2013-03-01","2013-03-01"],["CDISCPILOT01","SV","01-709-1424",3,"BASELINE",1,"2013-03-03","2013-03-03"],["CDISCPILOT01","SV","01-709-1424",4,"WEEK 2",14,"2013-03-08","2013-03-08"],["CDISCPILOT01","SV","01-709-1424",4.1,"UNSCHEDULED 4.1",null,"2013-03-17","2013-03-17"],["CDISCPILOT01","SV","01-709-1424",101,"AE FOLLOW-UP",null,"2013-03-17","2013-03-17"],["CDISCPILOT01","SV","01-710-1002",1,"SCREENING 1",-7,"2013-12-30","2013-12-30"],["CDISCPILOT01","SV","01-710-1002",1.1,"UNSCHEDULED 1.1",null,"2013-12-31","2013-12-31"],["CDISCPILOT01","SV","01-710-1002",2,"SCREENING 2",-1,"2014-01-12","2014-01-12"],["CDISCPILOT01","SV","01-710-1002",3,"BASELINE",1,"2014-01-14","2014-01-14"],["CDISCPILOT01","SV","01-710-1002",4,"WEEK 2",14,"2014-01-18","2014-01-18"],["CDISCPILOT01","SV","01-710-1002",101,"AE FOLLOW-UP",null,"2014-01-20","2014-01-20"],["CDISCPILOT01","SV","01-710-1006",1,"SCREENING 1",-7,"2013-01-27","2013-01-27"],["CDISCPILOT01","SV","01-710-1006",2,"SCREENING 2",-1,"2013-02-08","2013-02-08"],["CDISCPILOT01","SV","01-710-1006",3,"BASELINE",1,"2013-02-10","2013-02-10"],["CDISCPILOT01","SV","01-710-1006",3.5,"AMBUL ECG PLACEMENT",13,"2013-02-21","2013-02-21"],["CDISCPILOT01","SV","01-710-1006",4,"WEEK 2",14,"2013-02-22","2013-02-22"],["CDISCPILOT01","SV","01-710-1006",5,"WEEK 4",28,"2013-03-08","2013-03-08"],["CDISCPILOT01","SV","01-710-1006",6,"AMBUL ECG REMOVAL",30,"2013-03-10","2013-03-10"],["CDISCPILOT01","SV","01-710-1006",7,"WEEK 6",42,"2013-03-23","2013-03-23"],["CDISCPILOT01","SV","01-710-1006",8,"WEEK 8",56,"2013-04-06","2013-04-06"],["CDISCPILOT01","SV","01-710-1006",8.1,"WEEK 10 (T)",70,"2013-04-20","2013-04-20"],["CDISCPILOT01","SV","01-710-1006",9,"WEEK 12",84,"2013-05-04","2013-05-04"],["CDISCPILOT01","SV","01-710-1006",9.1,"WEEK 14 (T)",98,"2013-05-18","2013-05-18"],["CDISCPILOT01","SV","01-710-1006",9.2,"UNSCHEDULED 9.2",null,"2013-05-18","2013-05-18"],["CDISCPILOT01","SV","01-710-1006",10,"WEEK 16",112,"2013-06-01","2013-06-01"],["CDISCPILOT01","SV","01-710-1006",10.1,"WEEK 18 (T)",126,"2013-06-15","2013-06-15"],["CDISCPILOT01","SV","01-710-1006",11,"WEEK 20",140,"2013-06-29","2013-06-29"],["CDISCPILOT01","SV","01-710-1006",11.1,"WEEK 22 (T)",154,"2013-07-13","2013-07-13"],["CDISCPILOT01","SV","01-710-1006",11.2,"UNSCHEDULED 11.2",null,"2013-07-13","2013-07-13"],["CDISCPILOT01","SV","01-710-1006",12,"WEEK 24",168,"2013-07-27","2013-07-27"],["CDISCPILOT01","SV","01-710-1006",13,"WEEK 26",182,"2013-08-10","2013-08-10"],["CDISCPILOT01","SV","01-710-1021",1,"SCREENING 1",-7,"2013-09-19","2013-09-19"],["CDISCPILOT01","SV","01-710-1021",2,"SCREENING 2",-1,"2013-09-25","2013-09-25"],["CDISCPILOT01","SV","01-710-1021",3,"BASELINE",1,"2013-09-27","2013-09-27"],["CDISCPILOT01","SV","01-710-1021",3.5,"AMBUL ECG PLACEMENT",13,"2013-10-10","2013-10-10"],["CDISCPILOT01","SV","01-710-1021",4,"WEEK 2",14,"2013-10-11","2013-10-11"],["CDISCPILOT01","SV","01-710-1021",5,"WEEK 4",28,"2013-10-27","2013-10-27"],["CDISCPILOT01","SV","01-710-1021",6,"AMBUL ECG REMOVAL",30,"2013-10-29","2013-10-29"],["CDISCPILOT01","SV","01-710-1021",7,"WEEK 6",42,"2013-11-12","2013-11-12"],["CDISCPILOT01","SV","01-710-1021",101,"AE FOLLOW-UP",null,"2013-11-22","2013-11-22"],["CDISCPILOT01","SV","01-710-1027",1,"SCREENING 1",-7,"2014-02-03","2014-02-03"],["CDISCPILOT01","SV","01-710-1027",2,"SCREENING 2",-1,"2014-02-27","2014-02-27"],["CDISCPILOT01","SV","01-710-1027",3,"BASELINE",1,"2014-02-28","2014-02-28"],["CDISCPILOT01","SV","01-710-1027",4,"WEEK 2",14,"2014-03-14","2014-03-14"],["CDISCPILOT01","SV","01-710-1027",5,"WEEK 4",28,"2014-03-28","2014-03-28"],["CDISCPILOT01","SV","01-710-1027",7,"WEEK 6",42,"2014-04-11","2014-04-11"],["CDISCPILOT01","SV","01-710-1027",8,"WEEK 8",56,"2014-04-24","2014-04-24"],["CDISCPILOT01","SV","01-710-1027",8.1,"WEEK 10 (T)",70,"2014-05-08","2014-05-08"],["CDISCPILOT01","SV","01-710-1027",9,"WEEK 12",84,"2014-05-23","2014-05-23"],["CDISCPILOT01","SV","01-710-1027",9.1,"WEEK 14 (T)",98,"2014-06-06","2014-06-06"],["CDISCPILOT01","SV","01-710-1027",10,"WEEK 16",112,"2014-06-20","2014-06-20"],["CDISCPILOT01","SV","01-710-1027",10.1,"WEEK 18 (T)",126,"2014-07-04","2014-07-04"],["CDISCPILOT01","SV","01-710-1027",11,"WEEK 20",140,"2014-07-17","2014-07-17"],["CDISCPILOT01","SV","01-710-1027",11.1,"WEEK 22 (T)",154,"2014-07-31","2014-07-31"],["CDISCPILOT01","SV","01-710-1027",12,"WEEK 24",168,"2014-08-19","2014-08-19"],["CDISCPILOT01","SV","01-710-1027",13,"WEEK 26",182,"2014-08-29","2014-08-29"],["CDISCPILOT01","SV","01-710-1045",1,"SCREENING 1",-7,"2013-05-20","2013-05-20"],["CDISCPILOT01","SV","01-710-1045",2,"SCREENING 2",-1,"2013-06-01","2013-06-01"],["CDISCPILOT01","SV","01-710-1045",3,"BASELINE",1,"2013-06-03","2013-06-03"],["CDISCPILOT01","SV","01-710-1045",3.5,"AMBUL ECG PLACEMENT",13,"2013-06-16","2013-06-16"],["CDISCPILOT01","SV","01-710-1045",4,"WEEK 2",14,"2013-06-17","2013-06-17"],["CDISCPILOT01","SV","01-710-1045",5,"WEEK 4",28,"2013-07-01","2013-07-01"],["CDISCPILOT01","SV","01-710-1045",6,"AMBUL ECG REMOVAL",30,"2013-07-05","2013-07-05"],["CDISCPILOT01","SV","01-710-1045",7,"WEEK 6",42,"2013-07-15","2013-07-15"],["CDISCPILOT01","SV","01-710-1045",8,"WEEK 8",56,"2013-07-29","2013-07-29"],["CDISCPILOT01","SV","01-710-1045",8.1,"WEEK 10 (T)",70,"2013-08-12","2013-08-12"],["CDISCPILOT01","SV","01-710-1045",9,"WEEK 12",84,"2013-08-17","2013-08-17"],["CDISCPILOT01","SV","01-710-1045",101,"AE FOLLOW-UP",null,"2013-09-08","2013-09-08"],["CDISCPILOT01","SV","01-710-1053",1,"SCREENING 1",-7,"2012-12-15","2012-12-15"],["CDISCPILOT01","SV","01-710-1053",2,"SCREENING 2",-1,"2012-12-24","2012-12-24"],["CDISCPILOT01","SV","01-710-1053",3,"BASELINE",1,"2012-12-26","2012-12-26"],["CDISCPILOT01","SV","01-710-1053",3.5,"AMBUL ECG PLACEMENT",13,"2013-01-08","2013-01-08"],["CDISCPILOT01","SV","01-710-1053",4,"WEEK 2",14,"2013-01-09","2013-01-09"],["CDISCPILOT01","SV","01-710-1053",5,"WEEK 4",28,"2013-01-24","2013-01-24"],["CDISCPILOT01","SV","01-710-1053",6,"AMBUL ECG REMOVAL",30,"2013-01-26","2013-01-26"],["CDISCPILOT01","SV","01-710-1053",7,"WEEK 6",42,"2013-02-06","2013-02-06"],["CDISCPILOT01","SV","01-710-1053",8,"WEEK 8",56,"2013-02-15","2013-02-15"],["CDISCPILOT01","SV","01-710-1053",8.2,"UNSCHEDULED 8.2",null,"2013-02-26","2013-02-26"],["CDISCPILOT01","SV","01-710-1053",101,"AE FOLLOW-UP",null,"2013-02-26","2013-02-26"],["CDISCPILOT01","SV","01-710-1060",1,"SCREENING 1",-7,"2012-12-24","2012-12-24"],["CDISCPILOT01","SV","01-710-1060",2,"SCREENING 2",-1,"2012-12-30","2012-12-30"],["CDISCPILOT01","SV","01-710-1060",3,"BASELINE",1,"2013-01-01","2013-01-01"],["CDISCPILOT01","SV","01-710-1060",3.5,"AMBUL ECG PLACEMENT",13,"2013-01-14","2013-01-14"],["CDISCPILOT01","SV","01-710-1060",4,"WEEK 2",14,"2013-01-15","2013-01-15"],["CDISCPILOT01","SV","01-710-1060",5,"WEEK 4",28,"2013-02-01","2013-02-01"],["CDISCPILOT01","SV","01-710-1060",6,"AMBUL ECG REMOVAL",30,"2013-02-03","2013-02-03"],["CDISCPILOT01","SV","01-710-1060",7,"WEEK 6",42,"2013-02-12","2013-02-12"],["CDISCPILOT01","SV","01-710-1060",8,"WEEK 8",56,"2013-02-26","2013-02-26"],["CDISCPILOT01","SV","01-710-1060",8.1,"WEEK 10 (T)",70,"2013-03-12","2013-03-12"],["CDISCPILOT01","SV","01-710-1060",8.2,"UNSCHEDULED 8.2",null,"2013-03-12","2013-03-12"],["CDISCPILOT01","SV","01-710-1060",9,"WEEK 12",84,"2013-03-26","2013-03-26"],["CDISCPILOT01","SV","01-710-1060",9.1,"WEEK 14 (T)",98,"2013-04-09","2013-04-09"],["CDISCPILOT01","SV","01-710-1060",10,"WEEK 16",112,"2013-04-23","2013-04-23"],["CDISCPILOT01","SV","01-710-1060",10.1,"WEEK 18 (T)",126,"2013-05-07","2013-05-07"],["CDISCPILOT01","SV","01-710-1060",11,"WEEK 20",140,"2013-05-24","2013-05-24"],["CDISCPILOT01","SV","01-710-1060",11.1,"WEEK 22 (T)",154,"2013-06-07","2013-06-07"],["CDISCPILOT01","SV","01-710-1060",12,"WEEK 24",168,"2013-06-21","2013-06-21"],["CDISCPILOT01","SV","01-710-1060",13,"WEEK 26",182,"2013-07-05","2013-07-05"],["CDISCPILOT01","SV","01-710-1070",1,"SCREENING 1",-7,"2012-08-28","2012-08-28"],["CDISCPILOT01","SV","01-710-1070",2,"SCREENING 2",-1,"2012-09-06","2012-09-06"],["CDISCPILOT01","SV","01-710-1070",3,"BASELINE",1,"2012-09-08","2012-09-08"],["CDISCPILOT01","SV","01-710-1070",3.5,"AMBUL ECG PLACEMENT",13,"2012-09-21","2012-09-21"],["CDISCPILOT01","SV","01-710-1070",4,"WEEK 2",14,"2012-09-22","2012-09-22"],["CDISCPILOT01","SV","01-710-1070",5,"WEEK 4",28,"2012-10-06","2012-10-06"],["CDISCPILOT01","SV","01-710-1070",6,"AMBUL ECG REMOVAL",30,"2012-10-08","2012-10-08"],["CDISCPILOT01","SV","01-710-1070",7,"WEEK 6",42,"2012-10-20","2012-10-20"],["CDISCPILOT01","SV","01-710-1070",8,"WEEK 8",56,"2012-11-05","2012-11-05"],["CDISCPILOT01","SV","01-710-1070",8.1,"WEEK 10 (T)",70,"2012-11-19","2012-11-19"],["CDISCPILOT01","SV","01-710-1070",9,"WEEK 12",84,"2012-12-01","2012-12-01"],["CDISCPILOT01","SV","01-710-1070",9.1,"WEEK 14 (T)",98,"2012-12-15","2012-12-15"],["CDISCPILOT01","SV","01-710-1070",10,"WEEK 16",112,"2012-12-28","2012-12-28"],["CDISCPILOT01","SV","01-710-1070",10.1,"WEEK 18 (T)",126,"2013-01-12","2013-01-12"],["CDISCPILOT01","SV","01-710-1070",11,"WEEK 20",140,"2013-02-23","2013-02-23"],["CDISCPILOT01","SV","01-710-1070",101,"AE FOLLOW-UP",null,"2013-07-04","2013-07-04"],["CDISCPILOT01","SV","01-710-1077",1,"SCREENING 1",-7,"2013-11-03","2013-11-03"],["CDISCPILOT01","SV","01-710-1077",2,"SCREENING 2",-1,"2013-11-15","2013-11-15"],["CDISCPILOT01","SV","01-710-1077",3,"BASELINE",1,"2013-11-17","2013-11-17"],["CDISCPILOT01","SV","01-710-1077",3.5,"AMBUL ECG PLACEMENT",13,"2013-11-30","2013-11-30"],["CDISCPILOT01","SV","01-710-1077",4,"WEEK 2",14,"2013-12-01","2013-12-01"],["CDISCPILOT01","SV","01-710-1077",5,"WEEK 4",28,"2013-12-15","2013-12-15"],["CDISCPILOT01","SV","01-710-1077",6,"AMBUL ECG REMOVAL",30,"2013-12-17","2013-12-17"],["CDISCPILOT01","SV","01-710-1077",7,"WEEK 6",42,"2013-12-30","2013-12-30"],["CDISCPILOT01","SV","01-710-1077",8,"WEEK 8",56,"2014-01-12","2014-01-12"],["CDISCPILOT01","SV","01-710-1077",8.1,"WEEK 10 (T)",70,"2014-01-26","2014-01-26"],["CDISCPILOT01","SV","01-710-1077",8.2,"UNSCHEDULED 8.2",null,"2014-01-26","2014-01-26"],["CDISCPILOT01","SV","01-710-1077",9,"WEEK 12",84,"2014-02-09","2014-02-09"],["CDISCPILOT01","SV","01-710-1077",9.1,"WEEK 14 (T)",98,"2014-02-23","2014-02-23"],["CDISCPILOT01","SV","01-710-1077",10,"WEEK 16",112,"2014-03-09","2014-03-09"],["CDISCPILOT01","SV","01-710-1077",10.1,"WEEK 18 (T)",126,"2014-03-23","2014-03-23"],["CDISCPILOT01","SV","01-710-1077",11,"WEEK 20",140,"2014-04-06","2014-04-06"],["CDISCPILOT01","SV","01-710-1077",11.1,"WEEK 22 (T)",154,"2014-04-20","2014-04-20"],["CDISCPILOT01","SV","01-710-1077",12,"WEEK 24",168,"2014-05-03","2014-05-03"],["CDISCPILOT01","SV","01-710-1077",13,"WEEK 26",182,"2014-05-18","2014-05-18"],["CDISCPILOT01","SV","01-710-1078",1,"SCREENING 1",-7,"2013-09-06","2013-09-06"],["CDISCPILOT01","SV","01-710-1078",2,"SCREENING 2",-1,"2013-09-15","2013-09-15"],["CDISCPILOT01","SV","01-710-1078",3,"BASELINE",1,"2013-09-17","2013-09-17"],["CDISCPILOT01","SV","01-710-1078",3.5,"AMBUL ECG PLACEMENT",13,"2013-10-05","2013-10-05"],["CDISCPILOT01","SV","01-710-1078",4,"WEEK 2",14,"2013-10-06","2013-10-06"],["CDISCPILOT01","SV","01-710-1078",5,"WEEK 4",28,"2013-10-20","2013-10-20"],["CDISCPILOT01","SV","01-710-1078",6,"AMBUL ECG REMOVAL",30,"2013-10-22","2013-10-22"],["CDISCPILOT01","SV","01-710-1078",7,"WEEK 6",42,"2013-11-03","2013-11-03"],["CDISCPILOT01","SV","01-710-1078",8,"WEEK 8",56,"2013-11-17","2013-11-17"],["CDISCPILOT01","SV","01-710-1078",8.1,"WEEK 10 (T)",70,"2013-12-01","2013-12-01"],["CDISCPILOT01","SV","01-710-1078",9,"WEEK 12",84,"2013-12-21","2013-12-21"],["CDISCPILOT01","SV","01-710-1078",9.1,"WEEK 14 (T)",98,"2014-01-04","2014-01-04"],["CDISCPILOT01","SV","01-710-1078",10,"WEEK 16",112,"2014-01-12","2014-01-12"],["CDISCPILOT01","SV","01-710-1078",10.1,"WEEK 18 (T)",126,"2014-01-26","2014-01-26"],["CDISCPILOT01","SV","01-710-1078",11,"WEEK 20",140,"2014-02-09","2014-02-09"],["CDISCPILOT01","SV","01-710-1078",11.1,"WEEK 22 (T)",154,"2014-02-23","2014-02-23"],["CDISCPILOT01","SV","01-710-1078",12,"WEEK 24",168,"2014-03-08","2014-03-08"],["CDISCPILOT01","SV","01-710-1078",13,"WEEK 26",182,"2014-03-23","2014-03-23"],["CDISCPILOT01","SV","01-710-1083",1,"SCREENING 1",-7,"2013-07-09","2013-07-09"],["CDISCPILOT01","SV","01-710-1083",2,"SCREENING 2",-1,"2013-07-20","2013-07-20"],["CDISCPILOT01","SV","01-710-1083",3,"BASELINE",1,"2013-07-22","2013-07-22"],["CDISCPILOT01","SV","01-710-1083",4,"WEEK 2",14,"2013-08-03","2013-08-03"],["CDISCPILOT01","SV","01-710-1129",1,"SCREENING 1",-7,"2013-03-05","2013-03-05"],["CDISCPILOT01","SV","01-710-1137",1,"SCREENING 1",-7,"2013-10-03","2013-10-03"],["CDISCPILOT01","SV","01-710-1137",2,"SCREENING 2",-1,"2013-10-09","2013-10-09"],["CDISCPILOT01","SV","01-710-1137",3,"BASELINE",1,"2013-10-11","2013-10-11"],["CDISCPILOT01","SV","01-710-1137",3.5,"AMBUL ECG PLACEMENT",13,"2013-10-24","2013-10-24"],["CDISCPILOT01","SV","01-710-1137",4,"WEEK 2",14,"2013-10-25","2013-10-25"],["CDISCPILOT01","SV","01-710-1137",5,"WEEK 4",28,"2013-11-08","2013-11-08"],["CDISCPILOT01","SV","01-710-1137",6,"AMBUL ECG REMOVAL",30,"2013-11-11","2013-11-11"],["CDISCPILOT01","SV","01-710-1137",7,"WEEK 6",42,"2013-11-13","2013-11-13"],["CDISCPILOT01","SV","01-710-1137",101,"AE FOLLOW-UP",null,"2013-11-25","2013-11-25"],["CDISCPILOT01","SV","01-710-1142",1,"SCREENING 1",-7,"2012-09-12","2012-09-12"],["CDISCPILOT01","SV","01-710-1142",2,"SCREENING 2",-1,"2012-09-30","2012-09-30"],["CDISCPILOT01","SV","01-710-1142",3,"BASELINE",1,"2012-10-02","2012-10-02"],["CDISCPILOT01","SV","01-710-1142",3.5,"AMBUL ECG PLACEMENT",13,"2012-10-15","2012-10-15"],["CDISCPILOT01","SV","01-710-1142",4,"WEEK 2",14,"2012-10-16","2012-10-16"],["CDISCPILOT01","SV","01-710-1142",5,"WEEK 4",28,"2012-10-23","2012-10-23"],["CDISCPILOT01","SV","01-710-1142",101,"AE FOLLOW-UP",null,"2012-10-28","2012-10-28"],["CDISCPILOT01","SV","01-710-1149",1,"SCREENING 1",-7,"2013-11-16","2013-11-16"],["CDISCPILOT01","SV","01-710-1154",1,"SCREENING 1",-7,"2014-03-08","2014-03-08"],["CDISCPILOT01","SV","01-710-1154",1.1,"UNSCHEDULED 1.1",null,"2014-03-15","2014-03-15"],["CDISCPILOT01","SV","01-710-1154",1.2,"UNSCHEDULED 1.2",null,"2014-03-22","2014-03-22"],["CDISCPILOT01","SV","01-710-1154",2,"SCREENING 2",-1,"2014-03-28","2014-03-28"],["CDISCPILOT01","SV","01-710-1154",3,"BASELINE",1,"2014-03-29","2014-03-29"],["CDISCPILOT01","SV","01-710-1154",4,"WEEK 2",14,"2014-04-12","2014-04-12"],["CDISCPILOT01","SV","01-710-1154",5,"WEEK 4",28,"2014-04-25","2014-04-25"],["CDISCPILOT01","SV","01-710-1154",7,"WEEK 6",42,"2014-05-09","2014-05-09"],["CDISCPILOT01","SV","01-710-1154",101,"AE FOLLOW-UP",null,"2014-06-13","2014-06-13"],["CDISCPILOT01","SV","01-710-1166",1,"SCREENING 1",-7,"2012-11-10","2012-11-10"],["CDISCPILOT01","SV","01-710-1166",2,"SCREENING 2",-1,"2012-11-28","2012-11-28"],["CDISCPILOT01","SV","01-710-1166",3,"BASELINE",1,"2012-11-30","2012-11-30"],["CDISCPILOT01","SV","01-710-1166",3.5,"AMBUL ECG PLACEMENT",13,"2012-12-13","2012-12-13"],["CDISCPILOT01","SV","01-710-1166",4,"WEEK 2",14,"2012-12-14","2012-12-14"],["CDISCPILOT01","SV","01-710-1166",5,"WEEK 4",28,"2012-12-28","2012-12-28"],["CDISCPILOT01","SV","01-710-1166",6,"AMBUL ECG REMOVAL",30,"2012-12-30","2012-12-30"],["CDISCPILOT01","SV","01-710-1166",7,"WEEK 6",42,"2013-01-11","2013-01-11"],["CDISCPILOT01","SV","01-710-1166",7.1,"UNSCHEDULED 7.1",null,"2013-01-16","2013-01-16"],["CDISCPILOT01","SV","01-710-1166",8,"WEEK 8",56,"2013-01-25","2013-01-25"],["CDISCPILOT01","SV","01-710-1166",8.1,"WEEK 10 (T)",70,"2013-02-08","2013-02-08"],["CDISCPILOT01","SV","01-710-1166",9,"WEEK 12",84,"2013-02-22","2013-02-22"],["CDISCPILOT01","SV","01-710-1166",9.1,"WEEK 14 (T)",98,"2013-03-08","2013-03-08"],["CDISCPILOT01","SV","01-710-1166",10,"WEEK 16",112,"2013-03-30","2013-03-30"],["CDISCPILOT01","SV","01-710-1166",101,"AE FOLLOW-UP",null,"2013-05-22","2013-05-22"],["CDISCPILOT01","SV","01-710-1183",1,"SCREENING 1",-7,"2013-10-24","2013-10-24"],["CDISCPILOT01","SV","01-710-1183",1.1,"UNSCHEDULED 1.1",null,"2013-11-01","2013-11-01"],["CDISCPILOT01","SV","01-710-1183",2,"SCREENING 2",-1,"2013-11-14","2013-11-14"],["CDISCPILOT01","SV","01-710-1183",3,"BASELINE",1,"2013-11-16","2013-11-16"],["CDISCPILOT01","SV","01-710-1183",3.5,"AMBUL ECG PLACEMENT",13,"2013-11-29","2013-11-29"],["CDISCPILOT01","SV","01-710-1183",4,"WEEK 2",14,"2013-11-30","2013-11-30"],["CDISCPILOT01","SV","01-710-1183",5,"WEEK 4",28,"2013-12-14","2013-12-14"],["CDISCPILOT01","SV","01-710-1183",6,"AMBUL ECG REMOVAL",30,"2013-12-16","2013-12-16"],["CDISCPILOT01","SV","01-710-1183",7,"WEEK 6",42,"2013-12-28","2013-12-28"],["CDISCPILOT01","SV","01-710-1183",8,"WEEK 8",56,"2014-01-11","2014-01-11"],["CDISCPILOT01","SV","01-710-1183",8.1,"WEEK 10 (T)",70,"2014-01-25","2014-01-25"],["CDISCPILOT01","SV","01-710-1183",9,"WEEK 12",84,"2014-02-08","2014-02-08"],["CDISCPILOT01","SV","01-710-1183",9.1,"WEEK 14 (T)",98,"2014-02-21","2014-02-21"],["CDISCPILOT01","SV","01-710-1183",10,"WEEK 16",112,"2014-03-10","2014-03-10"],["CDISCPILOT01","SV","01-710-1183",10.1,"WEEK 18 (T)",126,"2014-03-22","2014-03-22"],["CDISCPILOT01","SV","01-710-1183",10.2,"UNSCHEDULED 10.2",null,"2014-03-22","2014-03-22"],["CDISCPILOT01","SV","01-710-1183",11,"WEEK 20",140,"2014-04-05","2014-04-05"],["CDISCPILOT01","SV","01-710-1183",11.1,"WEEK 22 (T)",154,"2014-04-19","2014-04-19"],["CDISCPILOT01","SV","01-710-1183",11.2,"UNSCHEDULED 11.2",null,"2014-04-19","2014-04-19"],["CDISCPILOT01","SV","01-710-1183",12,"WEEK 24",168,"2014-05-03","2014-05-03"],["CDISCPILOT01","SV","01-710-1183",12.1,"UNSCHEDULED 12.1",null,"2014-05-10","2014-05-10"],["CDISCPILOT01","SV","01-710-1183",13,"WEEK 26",182,"2014-05-17","2014-05-17"],["CDISCPILOT01","SV","01-710-1187",1,"SCREENING 1",-7,"2012-10-26","2012-10-26"],["CDISCPILOT01","SV","01-710-1187",2,"SCREENING 2",-1,"2012-11-08","2012-11-08"],["CDISCPILOT01","SV","01-710-1187",3,"BASELINE",1,"2012-11-10","2012-11-10"],["CDISCPILOT01","SV","01-710-1187",3.5,"AMBUL ECG PLACEMENT",13,"2012-11-23","2012-11-23"],["CDISCPILOT01","SV","01-710-1187",4,"WEEK 2",14,"2012-11-24","2012-11-24"],["CDISCPILOT01","SV","01-710-1187",4.1,"UNSCHEDULED 4.1",null,"2012-11-25","2012-11-25"],["CDISCPILOT01","SV","01-710-1187",5,"WEEK 4",28,"2012-12-09","2012-12-09"],["CDISCPILOT01","SV","01-710-1187",5.1,"UNSCHEDULED 5.1",null,"2012-12-06","2012-12-06"],["CDISCPILOT01","SV","01-710-1187",6,"AMBUL ECG REMOVAL",30,"2012-12-11","2012-12-11"],["CDISCPILOT01","SV","01-710-1187",7,"WEEK 6",42,"2012-12-23","2012-12-23"],["CDISCPILOT01","SV","01-710-1187",7.1,"UNSCHEDULED 7.1",null,"2012-12-30","2012-12-30"],["CDISCPILOT01","SV","01-710-1187",8,"WEEK 8",56,"2013-01-06","2013-01-06"],["CDISCPILOT01","SV","01-710-1187",8.1,"WEEK 10 (T)",70,"2013-01-20","2013-01-20"],["CDISCPILOT01","SV","01-710-1187",9,"WEEK 12",84,"2013-02-03","2013-02-03"],["CDISCPILOT01","SV","01-710-1187",9.1,"WEEK 14 (T)",98,"2013-02-17","2013-02-17"],["CDISCPILOT01","SV","01-710-1187",10,"WEEK 16",112,"2013-03-02","2013-03-02"],["CDISCPILOT01","SV","01-710-1187",10.1,"WEEK 18 (T)",126,"2013-03-15","2013-03-15"],["CDISCPILOT01","SV","01-710-1187",11,"WEEK 20",140,"2013-03-31","2013-03-31"],["CDISCPILOT01","SV","01-710-1187",11.1,"WEEK 22 (T)",154,"2013-03-31","2013-03-31"],["CDISCPILOT01","SV","01-710-1187",12,"WEEK 24",168,"2013-04-28","2013-04-28"],["CDISCPILOT01","SV","01-710-1187",13,"WEEK 26",182,"2013-05-12","2013-05-12"],["CDISCPILOT01","SV","01-710-1235",1,"SCREENING 1",-7,"2012-09-13","2012-09-13"],["CDISCPILOT01","SV","01-710-1235",2,"SCREENING 2",-1,"2012-09-23","2012-09-23"],["CDISCPILOT01","SV","01-710-1235",3,"BASELINE",1,"2012-09-26","2012-09-26"],["CDISCPILOT01","SV","01-710-1235",3.5,"AMBUL ECG PLACEMENT",13,"2012-10-09","2012-10-09"],["CDISCPILOT01","SV","01-710-1235",4,"WEEK 2",14,"2012-10-10","2012-10-10"],["CDISCPILOT01","SV","01-710-1235",5,"WEEK 4",28,"2012-10-24","2012-10-24"],["CDISCPILOT01","SV","01-710-1235",6,"AMBUL ECG REMOVAL",30,"2012-10-27","2012-10-27"],["CDISCPILOT01","SV","01-710-1235",7,"WEEK 6",42,"2012-11-07","2012-11-07"],["CDISCPILOT01","SV","01-710-1235",8,"WEEK 8",56,"2012-11-21","2012-11-21"],["CDISCPILOT01","SV","01-710-1235",8.1,"WEEK 10 (T)",70,"2012-12-05","2012-12-05"],["CDISCPILOT01","SV","01-710-1235",9,"WEEK 12",84,"2012-12-19","2012-12-19"],["CDISCPILOT01","SV","01-710-1235",9.1,"WEEK 14 (T)",98,"2013-01-02","2013-01-02"],["CDISCPILOT01","SV","01-710-1235",10,"WEEK 16",112,"2013-01-15","2013-01-15"],["CDISCPILOT01","SV","01-710-1235",10.1,"WEEK 18 (T)",126,"2013-01-29","2013-01-29"],["CDISCPILOT01","SV","01-710-1235",11,"WEEK 20",140,"2013-02-12","2013-02-12"],["CDISCPILOT01","SV","01-710-1235",11.1,"WEEK 22 (T)",154,"2013-02-26","2013-02-26"],["CDISCPILOT01","SV","01-710-1235",12,"WEEK 24",168,"2013-03-13","2013-03-13"],["CDISCPILOT01","SV","01-710-1235",13,"WEEK 26",182,"2013-03-27","2013-03-27"],["CDISCPILOT01","SV","01-710-1249",1,"SCREENING 1",-7,"2013-12-19","2013-12-19"],["CDISCPILOT01","SV","01-710-1249",2,"SCREENING 2",-1,"2013-12-26","2013-12-26"],["CDISCPILOT01","SV","01-710-1249",3,"BASELINE",1,"2013-12-28","2013-12-28"],["CDISCPILOT01","SV","01-710-1249",3.5,"AMBUL ECG PLACEMENT",13,"2014-01-10","2014-01-10"],["CDISCPILOT01","SV","01-710-1249",4,"WEEK 2",14,"2014-01-11","2014-01-11"],["CDISCPILOT01","SV","01-710-1249",5,"WEEK 4",28,"2014-01-25","2014-01-25"],["CDISCPILOT01","SV","01-710-1249",6,"AMBUL ECG REMOVAL",30,"2014-01-27","2014-01-27"],["CDISCPILOT01","SV","01-710-1249",7,"WEEK 6",42,"2014-02-08","2014-02-08"],["CDISCPILOT01","SV","01-710-1249",8,"WEEK 8",56,"2014-02-22","2014-02-22"],["CDISCPILOT01","SV","01-710-1249",8.1,"WEEK 10 (T)",70,"2014-03-08","2014-03-08"],["CDISCPILOT01","SV","01-710-1249",9,"WEEK 12",84,"2014-03-22","2014-03-22"],["CDISCPILOT01","SV","01-710-1249",9.1,"WEEK 14 (T)",98,"2014-04-05","2014-04-05"],["CDISCPILOT01","SV","01-710-1249",10,"WEEK 16",112,"2014-04-19","2014-04-19"],["CDISCPILOT01","SV","01-710-1249",10.1,"WEEK 18 (T)",126,"2014-05-03","2014-05-03"],["CDISCPILOT01","SV","01-710-1249",11,"WEEK 20",140,"2014-05-17","2014-05-17"],["CDISCPILOT01","SV","01-710-1249",11.1,"WEEK 22 (T)",154,"2014-05-31","2014-05-31"],["CDISCPILOT01","SV","01-710-1249",12,"WEEK 24",168,"2014-06-14","2014-06-14"],["CDISCPILOT01","SV","01-710-1249",13,"WEEK 26",182,"2014-06-28","2014-06-28"],["CDISCPILOT01","SV","01-710-1257",1,"SCREENING 1",-7,"2013-11-29","2013-11-29"],["CDISCPILOT01","SV","01-710-1264",1,"SCREENING 1",-7,"2013-06-02","2013-06-02"],["CDISCPILOT01","SV","01-710-1264",2,"SCREENING 2",-1,"2013-06-11","2013-06-11"],["CDISCPILOT01","SV","01-710-1264",3,"BASELINE",1,"2013-06-13","2013-06-13"],["CDISCPILOT01","SV","01-710-1264",3.5,"AMBUL ECG PLACEMENT",13,"2013-06-26","2013-06-26"],["CDISCPILOT01","SV","01-710-1264",4,"WEEK 2",14,"2013-06-27","2013-06-27"],["CDISCPILOT01","SV","01-710-1264",5,"WEEK 4",28,"2013-07-11","2013-07-11"],["CDISCPILOT01","SV","01-710-1264",6,"AMBUL ECG REMOVAL",30,"2013-07-13","2013-07-13"],["CDISCPILOT01","SV","01-710-1264",7,"WEEK 6",42,"2013-07-25","2013-07-25"],["CDISCPILOT01","SV","01-710-1264",8,"WEEK 8",56,"2013-08-08","2013-08-08"],["CDISCPILOT01","SV","01-710-1264",8.1,"WEEK 10 (T)",70,"2013-08-22","2013-08-22"],["CDISCPILOT01","SV","01-710-1264",9,"WEEK 12",84,"2013-09-03","2013-09-03"],["CDISCPILOT01","SV","01-710-1264",9.1,"WEEK 14 (T)",98,"2013-09-19","2013-09-19"],["CDISCPILOT01","SV","01-710-1264",10,"WEEK 16",112,"2013-10-01","2013-10-01"],["CDISCPILOT01","SV","01-710-1264",11,"WEEK 20",140,"2013-10-12","2013-10-12"],["CDISCPILOT01","SV","01-710-1264",101,"AE FOLLOW-UP",null,"2013-11-05","2013-11-05"],["CDISCPILOT01","SV","01-710-1270",1,"SCREENING 1",-7,"2014-02-01","2014-02-01"],["CDISCPILOT01","SV","01-710-1270",2,"SCREENING 2",-1,"2014-02-10","2014-02-10"],["CDISCPILOT01","SV","01-710-1270",3,"BASELINE",1,"2014-02-12","2014-02-12"],["CDISCPILOT01","SV","01-710-1270",4,"WEEK 2",14,"2014-03-01","2014-03-01"],["CDISCPILOT01","SV","01-710-1270",101,"AE FOLLOW-UP",null,"2014-03-26","2014-03-26"],["CDISCPILOT01","SV","01-710-1271",1,"SCREENING 1",-7,"2012-09-04","2012-09-04"],["CDISCPILOT01","SV","01-710-1271",2,"SCREENING 2",-1,"2012-09-24","2012-09-24"],["CDISCPILOT01","SV","01-710-1271",3,"BASELINE",1,"2012-09-27","2012-09-27"],["CDISCPILOT01","SV","01-710-1271",3.5,"AMBUL ECG PLACEMENT",13,"2012-10-11","2012-10-11"],["CDISCPILOT01","SV","01-710-1271",4,"WEEK 2",14,"2012-10-12","2012-10-12"],["CDISCPILOT01","SV","01-710-1271",5,"WEEK 4",28,"2012-10-26","2012-10-26"],["CDISCPILOT01","SV","01-710-1271",6,"AMBUL ECG REMOVAL",30,"2012-10-28","2012-10-28"],["CDISCPILOT01","SV","01-710-1271",7,"WEEK 6",42,"2012-11-08","2012-11-08"],["CDISCPILOT01","SV","01-710-1271",8,"WEEK 8",56,"2012-12-02","2012-12-02"],["CDISCPILOT01","SV","01-710-1271",101,"AE FOLLOW-UP",null,"2012-12-09","2012-12-09"],["CDISCPILOT01","SV","01-710-1278",1,"SCREENING 1",-7,"2012-12-13","2012-12-13"],["CDISCPILOT01","SV","01-710-1278",2,"SCREENING 2",-1,"2012-12-22","2012-12-22"],["CDISCPILOT01","SV","01-710-1278",3,"BASELINE",1,"2012-12-24","2012-12-24"],["CDISCPILOT01","SV","01-710-1278",3.5,"AMBUL ECG PLACEMENT",13,"2013-01-06","2013-01-06"],["CDISCPILOT01","SV","01-710-1278",4,"WEEK 2",14,"2013-01-07","2013-01-07"],["CDISCPILOT01","SV","01-710-1278",5,"WEEK 4",28,"2013-01-24","2013-01-24"],["CDISCPILOT01","SV","01-710-1278",6,"AMBUL ECG REMOVAL",30,"2013-01-26","2013-01-26"],["CDISCPILOT01","SV","01-710-1278",7,"WEEK 6",42,"2013-02-07","2013-02-07"],["CDISCPILOT01","SV","01-710-1278",8,"WEEK 8",56,"2013-02-21","2013-02-21"],["CDISCPILOT01","SV","01-710-1278",9,"WEEK 12",84,"2013-03-03","2013-03-03"],["CDISCPILOT01","SV","01-710-1278",101,"AE FOLLOW-UP",null,"2013-03-10","2013-03-10"],["CDISCPILOT01","SV","01-710-1300",1,"SCREENING 1",-7,"2012-12-04","2012-12-04"],["CDISCPILOT01","SV","01-710-1300",2,"SCREENING 2",-1,"2012-12-13","2012-12-13"],["CDISCPILOT01","SV","01-710-1300",3,"BASELINE",1,"2012-12-15","2012-12-15"],["CDISCPILOT01","SV","01-710-1300",3.5,"AMBUL ECG PLACEMENT",13,"2012-12-29","2012-12-29"],["CDISCPILOT01","SV","01-710-1300",4,"WEEK 2",14,"2012-12-30","2012-12-30"],["CDISCPILOT01","SV","01-710-1300",5,"WEEK 4",28,"2013-01-13","2013-01-13"],["CDISCPILOT01","SV","01-710-1300",6,"AMBUL ECG REMOVAL",30,"2013-01-15","2013-01-15"],["CDISCPILOT01","SV","01-710-1300",7,"WEEK 6",42,"2013-01-28","2013-01-28"],["CDISCPILOT01","SV","01-710-1300",8,"WEEK 8",56,"2013-02-11","2013-02-11"],["CDISCPILOT01","SV","01-710-1300",9,"WEEK 12",84,"2013-02-19","2013-02-19"],["CDISCPILOT01","SV","01-710-1300",101,"AE FOLLOW-UP",null,"2013-03-19","2013-03-19"],["CDISCPILOT01","SV","01-710-1314",1,"SCREENING 1",-7,"2013-04-21","2013-04-21"],["CDISCPILOT01","SV","01-710-1314",2,"SCREENING 2",-1,"2013-04-22","2013-04-22"],["CDISCPILOT01","SV","01-710-1314",3,"BASELINE",1,"2013-04-24","2013-04-24"],["CDISCPILOT01","SV","01-710-1314",3.5,"AMBUL ECG PLACEMENT",13,"2013-05-08","2013-05-08"],["CDISCPILOT01","SV","01-710-1314",4,"WEEK 2",14,"2013-05-09","2013-05-09"],["CDISCPILOT01","SV","01-710-1314",5,"WEEK 4",28,"2013-05-23","2013-05-23"],["CDISCPILOT01","SV","01-710-1314",6,"AMBUL ECG REMOVAL",30,"2013-05-25","2013-05-25"],["CDISCPILOT01","SV","01-710-1315",1,"SCREENING 1",-7,"2013-02-12","2013-02-12"],["CDISCPILOT01","SV","01-710-1315",1.1,"UNSCHEDULED 1.1",null,"2013-02-20","2013-02-20"],["CDISCPILOT01","SV","01-710-1315",2,"SCREENING 2",-1,"2013-02-25","2013-02-25"],["CDISCPILOT01","SV","01-710-1315",3,"BASELINE",1,"2013-02-27","2013-02-27"],["CDISCPILOT01","SV","01-710-1315",3.5,"AMBUL ECG PLACEMENT",13,"2013-03-12","2013-03-12"],["CDISCPILOT01","SV","01-710-1315",4,"WEEK 2",14,"2013-03-13","2013-03-13"],["CDISCPILOT01","SV","01-710-1315",5,"WEEK 4",28,"2013-03-26","2013-03-26"],["CDISCPILOT01","SV","01-710-1315",6,"AMBUL ECG REMOVAL",30,"2013-03-28","2013-03-28"],["CDISCPILOT01","SV","01-710-1315",7,"WEEK 6",42,"2013-04-10","2013-04-10"],["CDISCPILOT01","SV","01-710-1315",8,"WEEK 8",56,"2013-04-23","2013-04-23"],["CDISCPILOT01","SV","01-710-1315",8.1,"WEEK 10 (T)",70,"2013-05-07","2013-05-07"],["CDISCPILOT01","SV","01-710-1315",9,"WEEK 12",84,"2013-05-21","2013-05-21"],["CDISCPILOT01","SV","01-710-1315",9.1,"WEEK 14 (T)",98,"2013-06-04","2013-06-04"],["CDISCPILOT01","SV","01-710-1315",10,"WEEK 16",112,"2013-06-18","2013-06-18"],["CDISCPILOT01","SV","01-710-1315",10.1,"WEEK 18 (T)",126,"2013-07-02","2013-07-02"],["CDISCPILOT01","SV","01-710-1315",11,"WEEK 20",140,"2013-07-16","2013-07-16"],["CDISCPILOT01","SV","01-710-1315",101,"AE FOLLOW-UP",null,"2013-09-02","2013-09-02"],["CDISCPILOT01","SV","01-710-1337",1,"SCREENING 1",-7,"2013-12-30","2013-12-30"],["CDISCPILOT01","SV","01-710-1354",1,"SCREENING 1",-7,"2012-10-29","2012-10-29"],["CDISCPILOT01","SV","01-710-1354",2,"SCREENING 2",-1,"2012-11-09","2012-11-09"],["CDISCPILOT01","SV","01-710-1354",3,"BASELINE",1,"2012-11-11","2012-11-11"],["CDISCPILOT01","SV","01-710-1354",3.5,"AMBUL ECG PLACEMENT",13,"2012-11-24","2012-11-24"],["CDISCPILOT01","SV","01-710-1354",4,"WEEK 2",14,"2012-11-25","2012-11-25"],["CDISCPILOT01","SV","01-710-1354",5,"WEEK 4",28,"2012-12-08","2012-12-08"],["CDISCPILOT01","SV","01-710-1354",6,"AMBUL ECG REMOVAL",30,"2012-12-12","2012-12-12"],["CDISCPILOT01","SV","01-710-1354",7,"WEEK 6",42,"2012-12-22","2012-12-22"],["CDISCPILOT01","SV","01-710-1354",8,"WEEK 8",56,"2013-01-06","2013-01-06"],["CDISCPILOT01","SV","01-710-1354",8.1,"WEEK 10 (T)",70,"2013-01-20","2013-01-20"],["CDISCPILOT01","SV","01-710-1354",9,"WEEK 12",84,"2013-02-02","2013-02-02"],["CDISCPILOT01","SV","01-710-1354",9.1,"WEEK 14 (T)",98,"2013-02-16","2013-02-16"],["CDISCPILOT01","SV","01-710-1354",10,"WEEK 16",112,"2013-03-02","2013-03-02"],["CDISCPILOT01","SV","01-710-1354",10.1,"WEEK 18 (T)",126,"2013-03-16","2013-03-16"],["CDISCPILOT01","SV","01-710-1354",11,"WEEK 20",140,"2013-03-30","2013-03-30"],["CDISCPILOT01","SV","01-710-1354",11.1,"WEEK 22 (T)",154,"2013-04-13","2013-04-13"],["CDISCPILOT01","SV","01-710-1354",12,"WEEK 24",168,"2013-04-21","2013-04-21"],["CDISCPILOT01","SV","01-710-1354",13,"WEEK 26",182,"2013-05-01","2013-05-01"],["CDISCPILOT01","SV","01-710-1358",1,"SCREENING 1",-7,"2012-09-02","2012-09-02"],["CDISCPILOT01","SV","01-710-1358",2,"SCREENING 2",-1,"2012-09-15","2012-09-15"],["CDISCPILOT01","SV","01-710-1358",3,"BASELINE",1,"2012-09-17","2012-09-17"],["CDISCPILOT01","SV","01-710-1358",3.5,"AMBUL ECG PLACEMENT",13,"2012-09-30","2012-09-30"],["CDISCPILOT01","SV","01-710-1358",4,"WEEK 2",14,"2012-10-01","2012-10-01"],["CDISCPILOT01","SV","01-710-1358",5,"WEEK 4",28,"2012-10-20","2012-10-20"],["CDISCPILOT01","SV","01-710-1358",6,"AMBUL ECG REMOVAL",30,"2012-10-22","2012-10-22"],["CDISCPILOT01","SV","01-710-1358",7,"WEEK 6",42,"2012-10-30","2012-10-30"],["CDISCPILOT01","SV","01-710-1358",8,"WEEK 8",56,"2012-11-14","2012-11-14"],["CDISCPILOT01","SV","01-710-1358",8.1,"WEEK 10 (T)",70,"2012-11-28","2012-11-28"],["CDISCPILOT01","SV","01-710-1358",9,"WEEK 12",84,"2012-12-12","2012-12-12"],["CDISCPILOT01","SV","01-710-1358",9.1,"WEEK 14 (T)",98,"2012-12-26","2012-12-26"],["CDISCPILOT01","SV","01-710-1358",10,"WEEK 16",112,"2013-01-09","2013-01-09"],["CDISCPILOT01","SV","01-710-1358",10.1,"WEEK 18 (T)",126,"2013-01-23","2013-01-23"],["CDISCPILOT01","SV","01-710-1358",11,"WEEK 20",140,"2013-02-06","2013-02-06"],["CDISCPILOT01","SV","01-710-1358",12,"WEEK 24",168,"2013-03-12","2013-03-12"],["CDISCPILOT01","SV","01-710-1368",1,"SCREENING 1",-7,"2013-10-21","2013-10-21"],["CDISCPILOT01","SV","01-710-1368",2,"SCREENING 2",-1,"2013-10-22","2013-10-22"],["C