[
  {
    "STUDYID": "CDISCPILOT01",
    "USUBJID": "01-701-1015",
    "SITEID": "701",
    "SITEGR1": "701",
    "TRT01P": "Placebo",
    "TRT01A": "Placebo",
    "TRT01PN": 0,
    "TRTP": "Placebo",
    "TRTA": "Placebo",
    "TRTSDT": "2014-01-02",
    "TRTEDT": "2014-07-02",
    "SAFFL": "Y",
    "ITTFL": "Y",
    "EFFFL": "Y",
    "PARAMCD": "NPTOT",
    "PARAM": "NPI-X Total (9) Score",
    "PARAMN": 1,
    "AVAL": 0,
    "BASE": 0,
    "CHG": null,
    "AVISIT": "Baseline",
    "AVISITN": 0,
    "ADT": "2014-01-02",
    "ADY": 1,
    "ABLFL": "Y",
    "ANL01FL": "Y",
    "DTYPE": null
  },
  {
    "STUDYID": "CDISCPILOT01",
    "USUBJID": "01-701-1015",
    "SITEID": "701",
    "SITEGR1": "701",
    "TRT01P": "Placebo",
    "TRT01A": "Placebo",
    "TRT01PN": 0,
    "TRTP": "Placebo",
    "TRTA": "Placebo",
    "TRTSDT": "2014-01-02",
    "TRTEDT": "2014-07-02",
    "SAFFL": "Y",
    "ITTFL": "Y",
    "EFFFL": "Y",
    "PARAMCD": "NPTOT",
    "PARAM": "NPI-X Total (9) Score",
    "PARAMN": 1,
    "AVAL": 0,
    "BASE": 0,
    "CHG": 0,
    "AVISIT": "Week 4",
    "AVISITN": 4,
    "ADT": "2014-01-30",
    "ADY": 29,
    "ABLFL": null,
    "ANL01FL": "Y",
    "DTYPE": null
  },
  {
    "STUDYID": "CDISCPILOT01",
    "USUBJID": "01-701-1015",
    "SITEID": "701",
    "SITEGR1": "701",
    "TRT01P": "Placebo",
    "TRT01A": "Placebo",
    "TRT01PN": 0,
    "TRTP": "Placebo",
    "TRTA": "Placebo",
    "TRTSDT": "2014-01-02",
    "TRTEDT": "2014-07-02",
    "SAFFL": "Y",
    "ITTFL": "Y",
    "EFFFL": "Y",
    "PARAMCD": "NPTOT",
    "PARAM": "NPI-X Total (9) Score",
    "PARAMN": 1,
    "AVAL": 0,
    "BASE": 0,
    "CHG": 0,
    "AVISIT": "Week 8",
    "AVISITN": 8,
    "ADT": "2014-02-12",
    "ADY": 42,
    "ABLFL": null,
    "ANL01FL": "Y",
    "DTYPE": null
  },
  {
    "STUDYID": "CDISCPILOT01",
    "USUBJID": "01-701-1015",
    "SITEID": "701",
    "SITEGR1": "701",
    "TRT01P": "Placebo",
    "TRT01A": "Placebo",
    "TRT01PN": 0,
    "TRTP": "Placebo",
    "TRTA": "Placebo",
    "TRTSDT": "2014-01-02",
    "TRTEDT": "2014-07-02",
    "SAFFL": "Y",
    "ITTFL": "Y",
    "EFFFL": "Y",
    "PARAMCD": "NPTOT",
    "PARAM": "NPI-X Total (9) Score",
    "PARAMN": 1,
    "AVAL": 0,
    "BASE": 0,
    "CHG": 0,
    "AVISIT": "Week 12",
    "AVISITN": 12,
    "ADT": "2014-03-05",
    "ADY": 63,
    "ABLFL": null,
    "ANL01FL": "Y",
    "DTYPE": null
  },
  {
    "STUDYID": "CDISCPILOT01",
    "USUBJID": "01-701-1015",
    "SITEID": "701",
    "SITEGR1": "701",
    "TRT01P": "Placebo",
    "TRT01A": "Placebo",
    "TRT01PN": 0,
    "TRTP": "Placebo",
    "TRTA": "Placebo",
    "TRTSDT": "2014-01-02",
    "TRTEDT": "2014-07-02",
    "SAFFL": "Y",
    "ITTFL": "Y",
    "EFFFL": "Y",
    "PARAMCD": "NPTOT",
    "PARAM": "NPI-X Total (9) Score",
    "PARAMN": 1,
    "AVAL": 0,
    "BASE": 0,
    "CHG": 0,
    "AVISIT": "Week 16",
    "AVISITN": 16,
    "ADT": "2014-03-26",
    "ADY": 84,
    "ABLFL": null,
    "ANL01FL": "Y",
    "DTYPE": null
  },
  {
    "STUDYID": "CDISCPILOT01",
    "USUBJID": "01-701-1015",
    "SITEID": "701",
    "SITEGR1": "701",
    "TRT01P": "Placebo",
    "TRT01A": "Placebo",
    "TRT01PN": 0,
    "TRTP": "Placebo",
    "TRTA": "Placebo",
    "TRTSDT": "2014-01-02",
    "TRTEDT": "2014-07-02",
    "SAFFL": "Y",
    "ITTFL": "Y",
    "EFFFL": "Y",
    "PARAMCD": "NPTOT",
    "PARAM": "NPI-X Total (9) Score",
    "PARAMN": 1,
    "AVAL": 0,
    "BASE": 0,
    "CHG": 0,
    "AVISIT": "Week 20",
    "AVISITN": 20,
    "ADT": "2014-05-07",
    "ADY": 126,
    "ABLFL": null,
    "ANL01FL": "Y",
    "DTYPE": null
  },
  {
    "STUDYID": "CDISCPILOT01",
    "USUBJID": "01-701-1015",
    "SITEID": "701",
    "SITEGR1": "701",
    "TRT01P": "Placebo",
    "TRT01A": "Placebo",
    "TRT01PN": 0,
    "TRTP": "Placebo",
    "TRTA": "Placebo",
    "TRTSDT": "2014-01-02",
    "TRTEDT": "2014-07-02",
    "SAFFL": "Y",
    "ITTFL": "Y",
    "EFFFL": "Y",
    "PARAMCD": "NPTOT",
    "PARAM": "NPI-X Total (9) Score",
    "PARAMN": 1,
    "AVAL": 0,
    "BASE": 0,
    "CHG": 0,
    "AVISIT": "Week 24",
    "AVISITN": 24,
    "ADT": "2014-05-21",
    "ADY": 140,
    "ABLFL": null,
    "ANL01FL": "Y",
    "DTYPE": null
  },
  {
    "STUDYID": "CDISCPILOT01",
    "USUBJID": "01-701-1023",
    "SITEID": "701",
    "SITEGR1": "701",
    "TRT01P": "Placebo",
    "TRT01A": "Placebo",
    "TRT01PN": 0,
    "TRTP": "Placebo",
    "TRTA": "Placebo",
    "TRTSDT": "2012-08-05",
    "TRTEDT": "2012-09-01",
    "SAFFL": "Y",
    "ITTFL": "Y",
    "EFFFL": "Y",
    "PARAMCD": "NPTOT",
    "PARAM": "NPI-X Total (9) Score",
    "PARAMN": 1,
    "AVAL": 11,
    "BASE": 11,
    "CHG": null,
    "AVISIT": "Baseline",
    "AVISITN": 0,
    "ADT": "2012-08-05",
    "ADY": 1,
    "ABLFL": "Y",
    "ANL01FL": "Y",
    "DTYPE": null
  },
  {
    "STUDYID": "CDISCPILOT01",
    "USUBJID": "01-701-1023",
    "SITEID": "701",
    "SITEGR1": "701",
    "TRT01P": "Placebo",
    "TRT01A": "Placebo",
    "TRT01PN": 0,
    "TRTP": "Placebo",
    "TRTA": "Placebo",
    "TRTSDT": "2012-08-05",
    "TRTEDT": "2012-09-01",
    "SAFFL": "Y",
    "ITTFL": "Y",
    "EFFFL": "Y",
    "PARAMCD": "NPTOT",
    "PARAM": "NPI-X Total (9) Score",
    "PARAMN": 1,
    "AVAL": 11,
    "BASE": 11,
    "CHG": 0,
    "AVISIT": "Week 4",
    "AVISITN": 4,
    "ADT": "2012-09-02",
    "ADY": 29,
    "ABLFL": null,
    "ANL01FL": "Y",
    "DTYPE": null
  },
  {
    "STUDYID": "CDISCPILOT01",
    "USUBJID": "01-701-1028",
    "SITEID": "701",
    "SITEGR1": "701",
    "TRT01P": "Xanomeline High Dose",
    "TRT01A": "Xanomeline High Dose",
    "TRT01PN": 2,
    "TRTP": "Xanomeline High Dose",
    "TRTA": "Xanomeline High Dose",
    "TRTSDT": "2013-07-19",
    "TRTEDT": "2014-01-14",
    "SAFFL": "Y",
    "ITTFL": "Y",
    "EFFFL": "Y",
    "PARAMCD": "NPTOT",
    "PARAM": "NPI-X Total (9) Score",
    "PARAMN": 1,
    "AVAL": 0,
    "BASE": 0,
    "CHG": null,
    "AVISIT": "Baseline",
    "AVISITN": 0,
    "ADT": "2013-07-19",
    "ADY": 1,
    "ABLFL": "Y",
    "ANL01FL": "Y",
    "DTYPE": null
  },
  {
    "STUDYID": "CDISCPILOT01",
    "USUBJID": "01-701-1028",
    "SITEID": "701",
    "SITEGR1": "701",
    "TRT01P": "Xanomeline High Dose",
    "TRT01A": "Xanomeline High Dose",
    "TRT01PN": 2,
    "TRTP": "Xanomeline High Dose",
    "TRTA": "Xanomeline High Dose",
    "TRTSDT": "2013-07-19",
    "TRTEDT": "2014-01-14",
    "SAFFL": "Y",
    "ITTFL": "Y",
    "EFFFL": "Y",
    "PARAMCD": "NPTOT",
    "PARAM": "NPI-X Total (9) Score",
    "PARAMN": 1,
    "AVAL": 0,
    "BASE": 0,
    "CHG": 0,
    "AVISIT": "Week 4",
    "AVISITN": 4,
    "ADT": "2013-08-14",
    "ADY": 27,
    "ABLFL": null,
    "ANL01FL": "Y",
    "DTYPE": null
  },
  {
    "STUDYID": "CDISCPILOT01",
    "USUBJID": "01-701-1028",
    "SITEID": "701",
    "SITEGR1": "701",
    "TRT01P": "Xanomeline High Dose",
    "TRT01A": "Xanomeline High Dose",
    "TRT01PN": 2,
    "TRTP": "Xanomeline High Dose",
    "TRTA": "Xanomeline High Dose",
    "TRTSDT": "2013-07-19",
    "TRTEDT": "2014-01-14",
    "SAFFL": "Y",
    "ITTFL": "Y",
    "EFFFL": "Y",
    "PARAMCD": "NPTOT",
    "PARAM": "NPI-X Total (9) Score",
    "PARAMN": 1,
    "AVAL": 0,
    "BASE": 0,
    "CHG": 0,
    "AVISIT": "Week 8",
    "AVISITN": 8,
    "ADT": "2013-08-29",
    "ADY": 42,
    "ABLFL": null,
    "ANL01FL": "Y",
    "DTYPE": null
  },
  {
    "STUDYID": "CDISCPILOT01",
    "USUBJID": "01-701-1028",
    "SITEID": "701",
    "SITEGR1": "701",
    "TRT01P": "Xanomeline High Dose",
    "TRT01A": "Xanomeline High Dose",
    "TRT01PN": 2,
    "TRTP": "Xanomeline High Dose",
    "TRTA": "Xanomeline High Dose",
    "TRTSDT": "2013-07-19",
    "TRTEDT": "2014-01-14",
    "SAFFL": "Y",
    "ITTFL": "Y",
    "EFFFL": "Y",
    "PARAMCD": "NPTOT",
    "PARAM": "NPI-X Total (9) Score",
    "PARAMN": 1,
    "AVAL": 0,
    "BASE": 0,
    "CHG": 0,
    "AVISIT": "Week 12",
    "AVISITN": 12,
    "ADT": "2013-09-10",
    "ADY": 54,
    "ABLFL": null,
    "ANL01FL": "Y",
    "DTYPE": null
  },
  {
    "STUDYID": "CDISCPILOT01",
    "USUBJID": "01-701-1028",
    "SITEID": "701",
    "SITEGR1": "701",
    "TRT01P": "Xanomeline High Dose",
    "TRT01A": "Xanomeline High Dose",
    "TRT01PN": 2,
    "TRTP": "Xanomeline High Dose",
    "TRTA": "Xanomeline High Dose",
    "TRTSDT": "2013-07-19",
    "TRTEDT": "2014-01-14",
    "SAFFL": "Y",
    "ITTFL": "Y",
    "EFFFL": "Y",
    "PARAMCD": "NPTOT",
    "PARAM": "NPI-X Total (9) Score",
    "PARAMN": 1,
    "AVAL": 0,
    "BASE": 0,
    "CHG": 0,
    "AVISIT": "Week 16",
    "AVISITN": 16,
    "ADT": "2013-10-09",
    "ADY": 83,
    "ABLFL": null,
    "ANL01FL": "Y",
    "DTYPE": null
  },
  {
    "STUDYID": "CDISCPILOT01",
    "USUBJID": "01-701-1028",
    "SITEID": "701",
    "SITEGR1": "701",
    "TRT01P": "Xanomeline High Dose",
    "TRT01A": "Xanomeline High Dose",
    "TRT01PN": 2,
    "TRTP": "Xanomeline High Dose",
    "TRTA": "Xanomeline High Dose",
    "TRTSDT": "2013-07-19",
    "TRTEDT": "2014-01-14",
    "SAFFL": "Y",
    "ITTFL": "Y",
    "EFFFL": "Y",
    "PARAMCD": "NPTOT",
    "PARAM": "NPI-X Total (9) Score",
    "PARAMN": 1,
    "AVAL": 0,
    "BASE": 0,
    "CHG": 0,
    "AVISIT": "Week 20",
    "AVISITN": 20,
    "ADT": "2013-11-06",
    "ADY": 111,
    "ABLFL": null,
    "ANL01FL": "Y",
    "DTYPE": null
  },
  {
    "STUDYID": "CDISCPILOT01",
    "USUBJID": "01-701-1028",
    "SITEID": "701",
    "SITEGR1": "701",
    "TRT01P": "Xanomeline High Dose",
    "TRT01A": "Xanomeline High Dose",
    "TRT01PN": 2,
    "TRTP": "Xanomeline High Dose",
    "TRTA": "Xanomeline High Dose",
    "TRTSDT": "2013-07-19",
    "TRTEDT": "2014-01-14",
    "SAFFL": "Y",
    "ITTFL": "Y",
    "EFFFL": "Y",
    "PARAMCD": "NPTOT",
    "PARAM": "NPI-X Total (9) Score",
    "PARAMN": 1,
    "AVAL": 0,
    "BASE": 0,
    "CHG": 0,
    "AVISIT": "Week 24",
    "AVISITN": 24,
    "ADT": "2013-12-04",
    "ADY": 139,
    "ABLFL": null,
    "ANL01FL": "Y",
    "DTYPE": null
  },
  {
    "STUDYID": "CDISCPILOT01",
    "USUBJID": "01-701-1033",
    "SITEID": "701",
    "SITEGR1": "701",
    "TRT01P": "Xanomeline Low Dose",
    "TRT01A": "Xanomeline Low Dose",
    "TRT01PN": 1,
    "TRTP": "Xanomeline Low Dose",
    "TRTA": "Xanomeline Low Dose",
    "TRTSDT": "2014-03-18",
    "TRTEDT": "2014-03-31",
    "SAFFL": "Y",
    "ITTFL": "Y",
    "EFFFL": "Y",
    "PARAMCD": "NPTOT",
    "PARAM": "NPI-X Total (9) Score",
    "PARAMN": 1,
    "AVAL": 1,
    "BASE": 1,
    "CHG": null,
    "AVISIT": "Baseline",
    "AVISITN": 0,
    "ADT": "2014-03-18",
    "ADY": 1,
    "ABLFL": "Y",
    "ANL01FL": "Y",
    "DTYPE": null
  },
  {
    "STUDYID": "CDISCPILOT01",
    "USUBJID": "01-701-1033",
    "SITEID": "701",
    "SITEGR1": "701",
    "TRT01P": "Xanomeline Low Dose",
    "TRT01A": "Xanomeline Low Dose",
    "TRT01PN": 1,
    "TRTP": "Xanomeline Low Dose",
    "TRTA": "Xanomeline Low Dose",
    "TRTSDT": "2014-03-18",
    "TRTEDT": "2014-03-31",
    "SAFFL": "Y",
    "ITTFL": "Y",
    "EFFFL": "Y",
    "PARAMCD": "NPTOT",
    "PARAM": "NPI-X Total (9) Score",
    "PARAMN": 1,
    "AVAL": 0,
    "BASE": 1,
    "CHG": -1,
    "AVISIT": "Week 4",
    "AVISITN": 4,
    "ADT": "2014-04-14",
    "ADY": 28,
    "ABLFL": null,
    "ANL01FL": "Y",
    "DTYPE": null
  },
  {
    "STUDYID": "CDISCPILOT01",
    "USUBJID": "01-701-1034",
    "SITEID": "701",
    "SITEGR1": "701",
    "TRT01P": "Xanomeline High Dose",
    "TRT01A": "Xanomeline High Dose",
    "TRT01PN": 2,
    "TRTP": "Xanomeline High Dose",
    "TRTA": "Xanomeline High Dose",
    "TRTSDT": "2014-07-01",
    "TRTEDT": "2014-12-30",
    "SAFFL": "Y",
    "ITTFL": "Y",
    "EFFFL": "Y",
    "PARAMCD": "NPTOT",
    "PARAM": "NPI-X Total (9) Score",
    "PARAMN": 1,
    "AVAL": 0,
    "BASE": 0,
    "CHG": null,
    "AVISIT": "Baseline",
    "AVISITN": 0,
    "ADT": "2014-07-01",
    "ADY": 1,
    "ABLFL": "Y",
    "ANL01FL": "Y",
    "DTYPE": null
  },
  {
    "STUDYID": "CDISCPILOT01",
    "USUBJID": "01-701-1034",
    "SITEID": "701",
    "SITEGR1": "701",
    "TRT01P": "Xanomeline High Dose",
    "TRT01A": "Xanomeline High Dose",
    "TRT01PN": 2,
    "TRTP": "Xanomeline High Dose",
    "TRTA": "Xanomeline High Dose",
    "TRTSDT": "2014-07-01",
    "TRTEDT": "2014-12-30",
    "SAFFL": "Y",
    "ITTFL": "Y",
    "EFFFL": "Y",
    "PARAMCD": "NPTOT",
    "PARAM": "NPI-X Total (9) Score",
    "PARAMN": 1,
    "AVAL": 2,
    "BASE": 0,
    "CHG": 2,
    "AVISIT": "Week 4",
    "AVISITN": 4,
    "ADT": "2014-07-29",
    "ADY": 29,
    "ABLFL": null,
    "ANL01FL": "Y",
    "DTYPE": null
  },
  {
    "STUDYID": "CDISCPILOT01",
    "USUBJID": "01-701-1034",
    "SITEID": "701",
    "SITEGR1": "701",
    "TRT01P": "Xanomeline High Dose",
    "TRT01A": "Xanomeline High Dose",
    "TRT01PN": 2,
    "TRTP": "Xanomeline High Dose",
    "TRTA": "Xanomeline High Dose",
    "TRTSDT": "2014-07-01",
    "TRTEDT": "2014-12-30",
    "SAFFL": "Y",
    "ITTFL": "Y",
    "EFFFL": "Y",
    "PARAMCD": "NPTOT",
    "PARAM": "NPI-X Total (9) Score",
    "PARAMN": 1,
    "AVAL": 3,
    "BASE": 0,
    "CHG": 3,
    "AVISIT": "Week 8",
    "AVISITN": 8,
    "ADT": "2014-08-11",
    "ADY": 42,
    "ABLFL": null,
    "ANL01FL": "Y",
    "DTYPE": null
  },
  {
    "STUDYID": "CDISCPILOT01",
    "USUBJID": "01-701-1034",
    "SITEID": "701",
    "SITEGR1": "701",
    "TRT01P": "Xanomeline High Dose",
    "TRT01A": "Xanomeline High Dose",
    "TRT01PN": 2,
    "TRTP": "Xanomeline High Dose",
    "TRTA": "Xanomeline High Dose",
    "TRTSDT": "2014-07-01",
    "TRTEDT": "2014-12-30",
    "SAFFL": "Y",
    "ITTFL": "Y",
    "EFFFL": "Y",
    "PARAMCD": "NPTOT",
    "PARAM": "NPI-X Total (9) Score",
    "PARAMN": 1,
    "AVAL": 0,
    "BASE": 0,
    "CHG": 0,
    "AVISIT": "Week 12",
    "AVISITN": 12,
    "ADT": "2014-08-26",
    "ADY": 57,
    "ABLFL": null,
    "ANL01FL": "Y",
    "DTYPE": null
  },
  {
    "STUDYID": "CDISCPILOT01",
    "USUBJID": "01-701-1034",
    "SITEID": "701",
    "SITEGR1": "701",
    "TRT01P": "Xanomeline High Dose",
    "TRT01A": "Xanomeline High Dose",
    "TRT01PN": 2,
    "TRTP": "Xanomeline High Dose",
    "TRTA": "Xanomeline High Dose",
    "TRTSDT": "2014-07-01",
    "TRTEDT": "2014-12-30",
    "SAFFL": "Y",
    "ITTFL": "Y",
    "EFFFL": "Y",
    "PARAMCD": "NPTOT",
    "PARAM": "NPI-X Total (9) Score",
    "PARAMN": 1,
    "AVAL": 0,
    "BASE": 0,
    "CHG": 0,
    "AVISIT": "Week 16",
    "AVISITN": 16,
    "ADT": "2014-09-25",
    "ADY": 87,
    "ABLFL": null,
    "ANL01FL": "Y",
    "DTYPE": null
  },
  {
    "STUDYID": "CDISCPILOT01",
    "USUBJID": "01-701-1034",
    "SITEID": "701",
    "SITEGR1": "701",
    "TRT01P": "Xanomeline High Dose",
    "TRT01A": "Xanomeline High Dose",
    "TRT01PN": 2,
    "TRTP": "Xanomeline High Dose",
    "TRTA": "Xanomeline High Dose",
    "TRTSDT": "2014-07-01",
    "TRTEDT": "2014-12-30",
    "SAFFL": "Y",
    "ITTFL": "Y",
    "EFFFL": "Y",
    "PARAMCD": "NPTOT",
    "PARAM": "NPI-X Total (9) Score",
    "PARAMN": 1,
    "AVAL": 0,
    "BASE": 0,
    "CHG": 0,
    "AVISIT": "Week 20",
    "AVISITN": 20,
    "ADT": "2014-10-21",
    "ADY": 113,
    "ABLFL": null,
    "ANL01FL": "Y",
    "DTYPE": null
  },
  {
    "STUDYID": "CDISCPILOT01",
    "USUBJID": "01-701-1034",
    "SITEID": "701",
    "SITEGR1": "701",
    "TRT01P": "Xanomeline High Dose",
    "TRT01A": "Xanomeline High Dose",
    "TRT01PN": 2,
    "TRTP": "Xanomeline High Dose",
    "TRTA": "Xanomeline High Dose",
    "TRTSDT": "2014-07-01",
    "TRTEDT": "2014-12-30",
    "SAFFL": "Y",
    "ITTFL": "Y",
    "EFFFL": "Y",
    "PARAMCD": "NPTOT",
    "PARAM": "NPI-X Total (9) Score",
    "PARAMN": 1,
    "AVAL": 1,
    "BASE": 0,
    "CHG": 1,
    "AVISIT": "Week 24",
    "AVISITN": 24,
    "ADT": "2014-11-18",
    "ADY": 141,
    "ABLFL": null,
    "ANL01FL": "Y",
    "DTYPE": null
  },
  {
    "STUDYID": "CDISCPILOT01",
    "USUBJID": "01-701-1047",
    "SITEID": "701",
    "SITEGR1": "701",
    "TRT01P": "Placebo",
    "TRT01A": "Placebo",
    "TRT01PN": 0,
    "TRTP": "Placebo",
    "TRTA": "Placebo",
    "TRTSDT": "2013-02-12",
    "TRTEDT": "2013-03-09",
    "SAFFL": "Y",
    "ITTFL": "Y",
    "EFFFL": "Y",
    "PARAMCD": "NPTOT",
    "PARAM": "NPI-X Total (9) Score",
    "PARAMN": 1,
    "AVAL": 2,
    "BASE": 2,
    "CHG": null,
    "AVISIT": "Baseline",
    "AVISITN": 0,
    "ADT": "2013-02-12",
    "ADY": 1,
    "ABLFL": "Y",
    "ANL01FL": "Y",
    "DTYPE": null
  },
  {
    "STUDYID": "CDISCPILOT01",
    "USUBJID": "01-701-1097",
    "SITEID": "701",
    "SITEGR1": "701",
    "TRT01P": "Xanomeline Low Dose",
    "TRT01A": "Xanomeline Low Dose",
    "TRT01PN": 1,
    "TRTP": "Xanomeline Low Dose",
    "TRTA": "Xanomeline Low Dose",
    "TRTSDT": "2014-01-01",
    "TRTEDT": "2014-07-09",
    "SAFFL": "Y",
    "ITTFL": "Y",
    "EFFFL": "Y",
    "PARAMCD": "NPTOT",
    "PARAM": "NPI-X Total (9) Score",
    "PARAMN": 1,
    "AVAL": 4,
    "BASE": 4,
    "CHG": null,
    "AVISIT": "Baseline",
    "AVISITN": 0,
    "ADT": "2014-01-01",
    "ADY": 1,
    "ABLFL": "Y",
    "ANL01FL": "Y",
    "DTYPE": null
  },
  {
    "STUDYID": "CDISCPILOT01",
    "USUBJID": "01-701-1097",
    "SITEID": "701",
    "SITEGR1": "701",
    "TRT01P": "Xanomeline Low Dose",
    "TRT01A": "Xanomeline Low Dose",
    "TRT01PN": 1,
    "TRTP": "Xanomeline Low Dose",
    "TRTA": "Xanomeline Low Dose",
    "TRTSDT": "2014-01-01",
    "TRTEDT": "2014-07-09",
    "SAFFL": "Y",
    "ITTFL": "Y",
    "EFFFL": "Y",
    "PARAMCD": "NPTOT",
    "PARAM": "NPI-X Total (9) Score",
    "PARAMN": 1,
    "AVAL": 1,
    "BASE": 4,
    "CHG": -3,
    "AVISIT": "Week 4",
    "AVISITN": 4,
    "ADT": "2014-01-29",
    "ADY": 29,
    "ABLFL": null,
    "ANL01FL": "Y",
    "DTYPE": null
  },
  {
    "STUDYID": "CDISCPILOT01",
    "USUBJID": "01-701-1097",
    "SITEID": "701",
    "SITEGR1": "701",
    "TRT01P": "Xanomeline Low Dose",
    "TRT01A": "Xanomeline Low Dose",
    "TRT01PN": 1,
    "TRTP": "Xanomeline Low Dose",
    "TRTA": "Xanomeline Low Dose",
    "TRTSDT": "2014-01-01",
    "TRTEDT": "2014-07-09",
    "SAFFL": "Y",
    "ITTFL": "Y",
    "EFFFL": "Y",
    "PARAMCD": "NPTOT",
    "PARAM": "NPI-X Total (9) Score",
    "PARAMN": 1,
    "AVAL": 3,
    "BASE": 4,
    "CHG": -1,
    "AVISIT": "Week 8",
    "AVISITN": 8,
    "ADT": "2014-02-11",
    "ADY": 42,
    "ABLFL": null,
    "ANL01FL": "Y",
    "DTYPE": null
  },
  {
    "STUDYID": "CDISCPILOT01",
    "USUBJID": "01-701-1097",
    "SITEID": "701",
    "SITEGR1": "701",
    "TRT01P": "Xanomeline Low Dose",
    "TRT01A": "Xanomeline Low Dose",
    "TRT01PN": 1,
    "TRTP": "Xanomeline Low Dose",
    "TRTA": "Xanomeline Low Dose",
    "TRTSDT": "2014-01-01",
    "TRTEDT": "2014-07-09",
    "SAFFL": "Y",
    "ITTFL": "Y",
    "EFFFL": "Y",
    "PARAMCD": "NPTOT",
    "PARAM": "NPI-X Total (9) Score",
    "PARAMN": 1,
    "AVAL": 2,
    "BASE": 4,
    "CHG": -2,
    "AVISIT": "Week 12",
    "AVISITN": 12,
    "ADT": "2014-02-26",
    "ADY": 57,
    "ABLFL": null,
    "ANL01FL": "Y",
    "DTYPE": null
  },
  {
    "STUDYID": "CDISCPILOT01",
    "USUBJID": "01-701-1097",
    "SITEID": "701",
    "SITEGR1": "701",
    "TRT01P": "Xanomeline Low Dose",
    "TRT01A": "Xanomeline Low Dose",
    "TRT01PN": 1,
    "TRTP": "Xanomeline Low Dose",
    "TRTA": "Xanomeline Low Dose",
    "TRTSDT": "2014-01-01",
    "TRTEDT": "2014-07-09",
    "SAFFL": "Y",
    "ITTFL": "Y",
    "EFFFL": "Y",
    "PARAMCD": "NPTOT",
    "PARAM": "NPI-X Total (9) Score",
    "PARAMN": 1,
    "AVAL": 4,
    "BASE": 4,
    "CHG": 0,
    "AVISIT": "Week 16",
    "AVISITN": 16,
    "ADT": "2014-03-26",
    "ADY": 85,
    "ABLFL": null,
    "ANL01FL": "Y",
    "DTYPE": null
  },
  {
    "STUDYID": "CDISCPILOT01",
    "USUBJID": "01-701-1097",
    "SITEID": "701",
    "SITEGR1": "701",
    "TRT01P": "Xanomeline Low Dose",
    "TRT01A": "Xanomeline Low Dose",
    "TRT01PN": 1,
    "TRTP": "Xanomeline Low Dose",
    "TRTA": "Xanomeline Low Dose",
    "TRTSDT": "2014-01-01",
    "TRTEDT": "2014-07-09",
    "SAFFL": "Y",
    "ITTFL": "Y",
    "EFFFL": "Y",
    "PARAMCD": "NPTOT",
    "PARAM": "NPI-X Total (9) Score",
    "PARAMN": 1,
    "AVAL": 0,
    "BASE": 4,
    "CHG": -4,
    "AVISIT": "Week 20",
    "AVISITN": 20,
    "ADT": "2014-04-23",
    "ADY": 113,
    "ABLFL": null,
    "ANL01FL": "Y",
    "DTYPE": null
  },
  {
    "STUDYID": "CDISCPILOT01",
    "USUBJID": "01-701-1097",
    "SITEID": "701",
    "SITEGR1": "701",
    "TRT01P": "Xanomeline Low Dose",
    "TRT01A": "Xanomeline Low Dose",
    "TRT01PN": 1,
    "TRTP": "Xanomeline Low Dose",
    "TRTA": "Xanomeline Low Dose",
    "TRTSDT": "2014-01-01",
    "TRTEDT": "2014-07-09",
    "SAFFL": "Y",
    "ITTFL": "Y",
    "EFFFL": "Y",
    "PARAMCD": "NPTOT",
    "PARAM": "NPI-X Total (9) Score",
    "PARAMN": 1,
    "AVAL": 6,
    "BASE": 4,
    "CHG": 2,
    "AVISIT": "Week 24",
    "AVISITN": 24,
    "ADT": "2014-05-21",
    "ADY": 141,
    "ABLFL": null,
    "ANL01FL": "Y",
    "DTYPE": null
  },
  {
    "STUDYID": "CDISCPILOT01",
    "USUBJID": "01-701-1111",
    "SITEID": "701",
    "SITEGR1": "701",
    "TRT01P": "Xanomeline Low Dose",
    "TRT01A": "Xanomeline Low Dose",
    "TRT01PN": 1,
    "TRTP": "Xanomeline Low Dose",
    "TRTA": "Xanomeline Low Dose",
    "TRTSDT": "2012-09-07",
    "TRTEDT": "2012-09-16",
    "SAFFL": "Y",
    "ITTFL": "Y",
    "EFFFL": "Y",
    "PARAMCD": "NPTOT",
    "PARAM": "NPI-X Total (9) Score",
    "PARAMN": 1,
    "AVAL": 2,
    "BASE": 2,
    "CHG": null,
    "AVISIT": "Baseline",
    "AVISITN": 0,
    "ADT": "2012-09-07",
    "ADY": 1,
    "ABLFL": "Y",
    "ANL01FL": "Y",
    "DTYPE": null
  },
  {
    "STUDYID": "CDISCPILOT01",
    "USUBJID": "01-701-1115",
    "SITEID": "701",
    "SITEGR1": "701",
    "TRT01P": "Xanomeline Low Dose",
    "TRT01A": "Xanomeline Low Dose",
    "TRT01PN": 1,
    "TRTP": "Xanomeline Low Dose",
    "TRTA": "Xanomeline Low Dose",
    "TRTSDT": "2012-11-30",
    "TRTEDT": "2013-01-23",
    "SAFFL": "Y",
    "ITTFL": "Y",
    "EFFFL": "Y",
    "PARAMCD": "NPTOT",
    "PARAM": "NPI-X Total (9) Score",
    "PARAMN": 1,
    "AVAL": 1,
    "BASE": 1,
    "CHG": null,
    "AVISIT": "Baseline",
    "AVISITN": 0,
    "ADT": "2012-11-30",
    "ADY": 1,
    "ABLFL": "Y",
    "ANL01FL": "Y",
    "DTYPE": null
  },
  {
    "STUDYID": "CDISCPILOT01",
    "USUBJID": "01-701-1115",
    "SITEID": "701",
    "SITEGR1": "701",
    "TRT01P": "Xanomeline Low Dose",
    "TRT01A": "Xanomeline Low Dose",
    "TRT01PN": 1,
    "TRTP": "Xanomeline Low Dose",
    "TRTA": "Xanomeline Low Dose",
    "TRTSDT": "2012-11-30",
    "TRTEDT": "2013-01-23",
    "SAFFL": "Y",
    "ITTFL": "Y",
    "EFFFL": "Y",
    "PARAMCD": "NPTOT",
    "PARAM": "NPI-X Total (9) Score",
    "PARAMN": 1,
    "AVAL": 0,
    "BASE": 1,
    "CHG": -1,
    "AVISIT": "Week 4",
    "AVISITN": 4,
    "ADT": "2012-12-26",
    "ADY": 27,
    "ABLFL": null,
    "ANL01FL": "Y",
    "DTYPE": null
  },
  {
    "STUDYID": "CDISCPILOT01",
    "USUBJID": "01-701-1115",
    "SITEID": "701",
    "SITEGR1": "701",
    "TRT01P": "Xanomeline Low Dose",
    "TRT01A": "Xanomeline Low Dose",
    "TRT01PN": 1,
    "TRTP": "Xanomeline Low Dose",
    "TRTA": "Xanomeline Low Dose",
    "TRTSDT": "2012-11-30",
    "TRTEDT": "2013-01-23",
    "SAFFL": "Y",
    "ITTFL": "Y",
    "EFFFL": "Y",
    "PARAMCD": "NPTOT",
    "PARAM": "NPI-X Total (9) Score",
    "PARAMN": 1,
    "AVAL": 0,
    "BASE": 1,
    "CHG": -1,
    "AVISIT": "Week 8",
    "AVISITN": 8,
    "ADT": "2013-01-10",
    "ADY": 42,
    "ABLFL": null,
    "ANL01FL": "Y",
    "DTYPE": null
  },
  {
    "STUDYID": "CDISCPILOT01",
    "USUBJID": "01-701-1115",
    "SITEID": "701",
    "SITEGR1": "701",
    "TRT01P": "Xanomeline Low Dose",
    "TRT01A": "Xanomeline Low Dose",
    "TRT01PN": 1,
    "TRTP": "Xanomeline Low Dose",
    "TRTA": "Xanomeline Low Dose",
    "TRTSDT": "2012-11-30",
    "TRTEDT": "2013-01-23",
    "SAFFL": "Y",
    "ITTFL": "Y",
    "EFFFL": "Y",
    "PARAMCD": "NPTOT",
    "PARAM": "NPI-X Total (9) Score",
    "PARAMN": 1,
    "AVAL": 0,
    "BASE": 1,
    "CHG": -1,
    "AVISIT": "Week 12",
    "AVISITN": 12,
    "ADT": "2013-01-23",
    "ADY": 55,
    "ABLFL": null,
    "ANL01FL": "Y",
    "DTYPE": null
  },
  {
    "STUDYID": "CDISCPILOT01",
    "USUBJID": "01-701-1118",
    "SITEID": "701",
    "SITEGR1": "701",
    "TRT01P": "Placebo",
    "TRT01A": "Placebo",
    "TRT01PN": 0,
    "TRTP": "Placebo",
    "TRTA": "Placebo",
    "TRTSDT": "2014-03-12",
    "TRTEDT": "2014-09-09",
    "SAFFL": "Y",
    "ITTFL": "Y",
    "EFFFL": "Y",
    "PARAMCD": "NPTOT",
    "PARAM": "NPI-X Total (9) Score",
    "PARAMN": 1,
    "AVAL": 0,
    "BASE": 0,
    "CHG": null,
    "AVISIT": "Baseline",
    "AVISITN": 0,
    "ADT": "2014-03-12",
    "ADY": 1,
    "ABLFL": "Y",
    "ANL01FL": "Y",
    "DTYPE": null
  },
  {
    "STUDYID": "CDISCPILOT01",
    "USUBJID": "01-701-1118",
    "SITEID": "701",
    "SITEGR1": "701",
    "TRT01P": "Placebo",
    "TRT01A": "Placebo",
    "TRT01PN": 0,
    "TRTP": "Placebo",
    "TRTA": "Placebo",
    "TRTSDT": "2014-03-12",
    "TRTEDT": "2014-09-09",
    "SAFFL": "Y",
    "ITTFL": "Y",
    "EFFFL": "Y",
    "PARAMCD": "NPTOT",
    "PARAM": "NPI-X Total (9) Score",
    "PARAMN": 1,
    "AVAL": 0,
    "BASE": 0,
    "CHG": 0,
    "AVISIT": "Week 4",
    "AVISITN": 4,
    "ADT": "2014-04-09",
    "ADY": 29,
    "ABLFL": null,
    "ANL01FL": "Y",
    "DTYPE": null
  },
  {
    "STUDYID": "CDISCPILOT01",
    "USUBJID": "01-701-1118",
    "SITEID": "701",
    "SITEGR1": "701",
    "TRT01P": "Placebo",
    "TRT01A": "Placebo",
    "TRT01PN": 0,
    "TRTP": "Placebo",
    "TRTA": "Placebo",
    "TRTSDT": "2014-03-12",
    "TRTEDT": "2014-09-09",
    "SAFFL": "Y",
    "ITTFL": "Y",
    "EFFFL": "Y",
    "PARAMCD": "NPTOT",
    "PARAM": "NPI-X Total (9) Score",
    "PARAMN": 1,
    "AVAL": 0,
    "BASE": 0,
    "CHG": 0,
    "AVISIT": "Week 8",
    "AVISITN": 8,
    "ADT": "2014-04-23",
    "ADY": 43,
    "ABLFL": null,
    "ANL01FL": "Y",
    "DTYPE": null
  },
  {
    "STUDYID": "CDISCPILOT01",
    "USUBJID": "01-701-1118",
    "SITEID": "701",
    "SITEGR1": "701",
    "TRT01P": "Placebo",
    "TRT01A": "Placebo",
    "TRT01PN": 0,
    "TRTP": "Placebo",
    "TRTA": "Placebo",
    "TRTSDT": "2014-03-12",
    "TRTEDT": "2014-09-09",
    "SAFFL": "Y",
    "ITTFL": "Y",
    "EFFFL": "Y",
    "PARAMCD": "NPTOT",
    "PARAM": "NPI-X Total (9) Score",
    "PARAMN": 1,
    "AVAL": 0,
    "BASE": 0,
    "CHG": 0,
    "AVISIT": "Week 12",
    "AVISITN": 12,
    "ADT": "2014-05-08",
    "ADY": 58,
    "ABLFL": null,
    "ANL01FL": "Y",
    "DTYPE": null
  },
  {
    "STUDYID": "CDISCPILOT01",
    "USUBJID": "01-701-1118",
    "SITEID": "701",
    "SITEGR1": "701",
    "TRT01P": "Placebo",
    "TRT01A": "Placebo",
    "TRT01PN": 0,
    "TRTP": "Placebo",
    "TRTA": "Placebo",
    "TRTSDT": "2014-03-12",
    "TRTEDT": "2014-09-09",
    "SAFFL": "Y",
    "ITTFL": "Y",
    "EFFFL": "Y",
    "PARAMCD": "NPTOT",
    "PARAM": "NPI-X Total (9) Score",
    "PARAMN": 1,
    "AVAL": 0,
    "BASE": 0,
    "CHG": 0,
    "AVISIT": "Week 16",
    "AVISITN": 16,
    "ADT": "2014-06-05",
    "ADY": 86,
    "ABLFL": null,
    "ANL01FL": "Y",
    "DTYPE": null
  },
  {
    "STUDYID": "CDISCPILOT01",
    "USUBJID": "01-701-1118",
    "SITEID": "701",
    "SITEGR1": "701",
    "TRT01P": "Placebo",
    "TRT01A": "Placebo",
    "TRT01PN": 0,
    "TRTP": "Placebo",
    "TRTA": "Placebo",
    "TRTSDT": "2014-03-12",
    "TRTEDT": "2014-09-09",
    "SAFFL": "Y",
    "ITTFL": "Y",
    "EFFFL": "Y",
    "PARAMCD": "NPTOT",
    "PARAM": "NPI-X Total (9) Score",
    "PARAMN": 1,
    "AVAL": 0,
    "BASE": 0,
    "CHG": 0,
    "AVISIT": "Week 20",
    "AVISITN": 20,
    "ADT": "2014-07-02",
    "ADY": 113,
    "ABLFL": null,
    "ANL01FL": "Y",
    "DTYPE": null
  },
  {
    "STUDYID": "CDISCPILOT01",
    "USUBJID": "01-701-1118",
    "SITEID": "701",
    "SITEGR1": "701",
    "TRT01P": "Placebo",
    "TRT01A": "Placebo",
    "TRT01PN": 0,
    "TRTP": "Placebo",
    "TRTA": "Placebo",
    "TRTSDT": "2014-03-12",
    "TRTEDT": "2014-09-09",
    "SAFFL": "Y",
    "ITTFL": "Y",
    "EFFFL": "Y",
    "PARAMCD": "NPTOT",
    "PARAM": "NPI-X Total (9) Score",
    "PARAMN": 1,
    "AVAL": 0,
    "BASE": 0,
    "CHG": 0,
    "AVISIT": "Week 24",
    "AVISITN": 24,
    "ADT": "2014-07-30",
    "ADY": 141,
    "ABLFL": null,
    "ANL01FL": "Y",
    "DTYPE": null
  },
  {
    "STUDYID": "CDISCPILOT01",
    "USUBJID": "01-701-1130",
    "SITEID": "701",
    "SITEGR1": "701",
    "TRT01P": "Placebo",
    "TRT01A": "Placebo",
    "TRT01PN": 0,
    "TRTP": "Placebo",
    "TRTA": "Placebo",
    "TRTSDT": "2014-02-15",
    "TRTEDT": "2014-08-16",
    "SAFFL": "Y",
    "ITTFL": "Y",
    "EFFFL": "Y",
    "PARAMCD": "NPTOT",
    "PARAM": "NPI-X Total (9) Score",
    "PARAMN": 1,
    "AVAL": 0,
    "BASE": 0,
    "CHG": null,
    "AVISIT": "Baseline",
    "AVISITN": 0,
    "ADT": "2014-02-15",
    "ADY": 1,
    "ABLFL": "Y",
    "ANL01FL": "Y",
    "DTYPE": null
  },
  {
    "STUDYID": "CDISCPILOT01",
    "USUBJID": "01-701-1130",
    "SITEID": "701",
    "SITEGR1": "701",
    "TRT01P": "Placebo",
    "TRT01A": "Placebo",
    "TRT01PN": 0,
    "TRTP": "Placebo",
    "TRTA": "Placebo",
    "TRTSDT": "2014-02-15",
    "TRTEDT": "2014-08-16",
    "SAFFL": "Y",
    "ITTFL": "Y",
    "EFFFL": "Y",
    "PARAMCD": "NPTOT",
    "PARAM": "NPI-X Total (9) Score",
    "PARAMN": 1,
    "AVAL": 1,
    "BASE": 0,
    "CHG": 1,
    "AVISIT": "Week 4",
    "AVISITN": 4,
    "ADT": "2014-03-15",
    "ADY": 29,
    "ABLFL": null,
    "ANL01FL": "Y",
    "DTYPE": null
  },
  {
    "STUDYID": "CDISCPILOT01",
    "USUBJID": "01-701-1130",
    "SITEID": "701",
    "SITEGR1": "701",
    "TRT01P": "Placebo",
    "TRT01A": "Placebo",
    "TRT01PN": 0,
    "TRTP": "Placebo",
    "TRTA": "Placebo",
    "TRTSDT": "2014-02-15",
    "TRTEDT": "2014-08-16",
    "SAFFL": "Y",
    "ITTFL": "Y",
    "EFFFL": "Y",
    "PARAMCD": "NPTOT",
    "PARAM": "NPI-X Total (9) Score",
    "PARAMN": 1,
    "AVAL": 0,
    "BASE": 0,
    "CHG": 0,
    "AVISIT": "Week 8",
    "AVISITN": 8,
    "ADT": "2014-03-29",
    "ADY": 43,
    "ABLFL": null,
    "ANL01FL": "Y",
    "DTYPE": null
  },
  {
    "STUDYID": "CDISCPILOT01",
    "USUBJID": "01-701-1130",
    "SITEID": "701",
    "SITEGR1": "701",
    "TRT01P": "Placebo",
    "TRT01A": "Placebo",
    "TRT01PN": 0,
    "TRTP": "Placebo",
    "TRTA": "Placebo",
    "TRTSDT": "2014-02-15",
    "TRTEDT": "2014-08-16",
    "SAFFL": "Y",
    "ITTFL": "Y",
    "EFFFL": "Y",
    "PARAMCD": "NPTOT",
    "PARAM": "NPI-X Total (9) Score",
    "PARAMN": 1,
    "AVAL": 0,
    "BASE": 0,
    "CHG": 0,
    "AVISIT": "Week 12",
    "AVISITN": 12,
    "ADT": "2014-04-12",
    "ADY": 57,
    "ABLFL": null,
    "ANL01FL": "Y",
    "DTYPE": null
  },
  {
    "STUDYID": "CDISCPILOT01",
    "USUBJID": "01-701-1130",
    "SITEID": "701",
    "SITEGR1": "701",
    "TRT01P": "Placebo",
    "TRT01A": "Placebo",
    "TRT01PN": 0,
    "TRTP": "Placebo",
    "TRTA": "Placebo",
    "TRTSDT": "2014-02-15",
    "TRTEDT": "2014-08-16",
    "SAFFL": "Y",
    "ITTFL": "Y",
    "EFFFL": "Y",
    "PARAMCD": "NPTOT",
    "PARAM": "NPI-X Total (9) Score",
    "PARAMN": 1,
    "AVAL": 0,
    "BASE": 0,
    "CHG": 0,
    "AVISIT": "Week 16",
    "AVISITN": 16,
    "ADT": "2014-05-16",
    "ADY": 91,
    "ABLFL": null,
    "ANL01FL": "Y",
    "DTYPE": null
  },
  {
    "STUDYID": "CDISCPILOT01",
    "USUBJID": "01-701-1130",
    "SITEID": "701",
    "SITEGR1": "701",
    "TRT01P": "Placebo",
    "TRT01A": "Placebo",
    "TRT01PN": 0,
    "TRTP": "Placebo",
    "TRTA": "Placebo",
    "TRTSDT": "2014-02-15",
    "TRTEDT": "2014-08-16",
    "SAFFL": "Y",
    "ITTFL": "Y",
    "EFFFL": "Y",
    "PARAMCD": "NPTOT",
    "PARAM": "NPI-X Total (9) Score",
    "PARAMN": 1,
    "AVAL": 0,
    "BASE": 0,
    "CHG": 0,
    "AVISIT": "Week 20",
    "AVISITN": 20,
    "ADT": "2014-06-07",
    "ADY": 113,
    "ABLFL": null,
    "ANL01FL": "Y",
    "DTYPE": null
  },
  {
    "STUDYID": "CDISCPILOT01",
    "USUBJID": "01-701-1130",
    "SITEID": "701",
    "SITEGR1": "701",
    "TRT01P": "Placebo",
    "TRT01A": "Placebo",
    "TRT01PN": 0,
    "TRTP": "Placebo",
    "TRTA": "Placebo",
    "TRTSDT": "2014-02-15",
    "TRTEDT": "2014-08-16",
    "SAFFL": "Y",
    "ITTFL": "Y",
    "EFFFL": "Y",
    "PARAMCD": "NPTOT",
    "PARAM": "NPI-X Total (9) Score",
    "PARAMN": 1,
    "AVAL": 1,
    "BASE": 0,
    "CHG": 1,
    "AVISIT": "Week 24",
    "AVISITN": 24,
    "ADT": "2014-07-02",
    "ADY": 138,
    "ABLFL": null,
    "ANL01FL": "Y",
    "DTYPE": null
  },
  {
    "STUDYID": "CDISCPILOT01",
    "USUBJID": "01-701-1133",
    "SITEID": "701",
    "SITEGR1": "701",
    "TRT01P": "Xanomeline High Dose",
    "TRT01A": "Xanomeline High Dose",
    "TRT01PN": 2,
    "TRTP": "Xanomeline High Dose",
    "TRTA": "Xanomeline High Dose",
    "TRTSDT": "2012-10-28",
    "TRTEDT": "2013-04-28",
    "SAFFL": "Y",
    "ITTFL": "Y",
    "EFFFL": "Y",
    "PARAMCD": "NPTOT",
    "PARAM": "NPI-X Total (9) Score",
    "PARAMN": 1,
    "AVAL": 3,
    "BASE": 3,
    "CHG": null,
    "AVISIT": "Baseline",
    "AVISITN": 0,
    "ADT": "2012-10-28",
    "ADY": 1,
    "ABLFL": "Y",
    "ANL01FL": "Y",
    "DTYPE": null
  },
  {
    "STUDYID": "CDISCPILOT01",
    "USUBJID": "01-701-1133",
    "SITEID": "701",
    "SITEGR1": "701",
    "TRT01P": "Xanomeline High Dose",
    "TRT01A": "Xanomeline High Dose",
    "TRT01PN": 2,
    "TRTP": "Xanomeline High Dose",
    "TRTA": "Xanomeline High Dose",
    "TRTSDT": "2012-10-28",
    "TRTEDT": "2013-04-28",
    "SAFFL": "Y",
    "ITTFL": "Y",
    "EFFFL": "Y",
    "PARAMCD": "NPTOT",
    "PARAM": "NPI-X Total (9) Score",
    "PARAMN": 1,
    "AVAL": 14,
    "BASE": 3,
    "CHG": 11,
    "AVISIT": "Week 4",
    "AVISITN": 4,
    "ADT": "2012-11-26",
    "ADY": 30,
    "ABLFL": null,
    "ANL01FL": "Y",
    "DTYPE": null
  },
  {
    "STUDYID": "CDISCPILOT01",
    "USUBJID": "01-701-1133",
    "SITEID": "701",
    "SITEGR1": "701",
    "TRT01P": "Xanomeline High Dose",
    "TRT01A": "Xanomeline High Dose",
    "TRT01PN": 2,
    "TRTP": "Xanomeline High Dose",
    "TRTA": "Xanomeline High Dose",
    "TRTSDT": "2012-10-28",
    "TRTEDT": "2013-04-28",
    "SAFFL": "Y",
    "ITTFL": "Y",
    "EFFFL": "Y",
    "PARAMCD": "NPTOT",
    "PARAM": "NPI-X Total (9) Score",
    "PARAMN": 1,
    "AVAL": 8,
    "BASE": 3,
    "CHG": 5,
    "AVISIT": "Week 8",
    "AVISITN": 8,
    "ADT": "2012-12-11",
    "ADY": 45,
    "ABLFL": null,
    "ANL01FL": "Y",
    "DTYPE": null
  },
  {
    "STUDYID": "CDISCPILOT01",
    "USUBJID": "01-701-1133",
    "SITEID": "701",
    "SITEGR1": "701",
    "TRT01P": "Xanomeline High Dose",
    "TRT01A": "Xanomeline High Dose",
    "TRT01PN": 2,
    "TRTP": "Xanomeline High Dose",
    "TRTA": "Xanomeline High Dose",
    "TRTSDT": "2012-10-28",
    "TRTEDT": "2013-04-28",
    "SAFFL": "Y",
    "ITTFL": "Y",
    "EFFFL": "Y",
    "PARAMCD": "NPTOT",
    "PARAM": "NPI-X Total (9) Score",
    "PARAMN": 1,
    "AVAL": 3,
    "BASE": 3,
    "CHG": 0,
    "AVISIT": "Week 12",
    "AVISITN": 12,
    "ADT": "2012-12-24",
    "ADY": 58,
    "ABLFL": null,
    "ANL01FL": "Y",
    "DTYPE": null
  },
  {
    "STUDYID": "CDISCPILOT01",
    "USUBJID": "01-701-1133",
    "SITEID": "701",
    "SITEGR1": "701",
    "TRT01P": "Xanomeline High Dose",
    "TRT01A": "Xanomeline High Dose",
    "TRT01PN": 2,
    "TRTP": "Xanomeline High Dose",
    "TRTA": "Xanomeline High Dose",
    "TRTSDT": "2012-10-28",
    "TRTEDT": "2013-04-28",
    "SAFFL": "Y",
    "ITTFL": "Y",
    "EFFFL": "Y",
    "PARAMCD": "NPTOT",
    "PARAM": "NPI-X Total (9) Score",
    "PARAMN": 1,
    "AVAL": 7,
    "BASE": 3,
    "CHG": 4,
    "AVISIT": "Week 16",
    "AVISITN": 16,
    "ADT": "2013-01-22",
    "ADY": 87,
    "ABLFL": null,
    "ANL01FL": "Y",
    "DTYPE": null
  },
  {
    "STUDYID": "CDISCPILOT01",
    "USUBJID": "01-701-1133",
    "SITEID": "701",
    "SITEGR1": "701",
    "TRT01P": "Xanomeline High Dose",
    "TRT01A": "Xanomeline High Dose",
    "TRT01PN": 2,
    "TRTP": "Xanomeline High Dose",
    "TRTA": "Xanomeline High Dose",
    "TRTSDT": "2012-10-28",
    "TRTEDT": "2013-04-28",
    "SAFFL": "Y",
    "ITTFL": "Y",
    "EFFFL": "Y",
    "PARAMCD": "NPTOT",
    "PARAM": "NPI-X Total (9) Score",
    "PARAMN": 1,
    "AVAL": 15,
    "BASE": 3,
    "CHG": 12,
    "AVISIT": "Week 20",
    "AVISITN": 20,
    "ADT": "2013-02-18",
    "ADY": 114,
    "ABLFL": null,
    "ANL01FL": "Y",
    "DTYPE": null
  },
  {
    "STUDYID": "CDISCPILOT01",
    "USUBJID": "01-701-1133",
    "SITEID": "701",
    "SITEGR1": "701",
    "TRT01P": "Xanomeline High Dose",
    "TRT01A": "Xanomeline High Dose",
    "TRT01PN": 2,
    "TRTP": "Xanomeline High Dose",
    "TRTA": "Xanomeline High Dose",
    "TRTSDT": "2012-10-28",
    "TRTEDT": "2013-04-28",
    "SAFFL": "Y",
    "ITTFL": "Y",
    "EFFFL": "Y",
    "PARAMCD": "NPTOT",
    "PARAM": "NPI-X Total (9) Score",
    "PARAMN": 1,
    "AVAL": 10,
    "BASE": 3,
    "CHG": 7,
    "AVISIT": "Week 24",
    "AVISITN": 24,
    "ADT": "2013-03-18",
    "ADY": 142,
    "ABLFL": null,
    "ANL01FL": "Y",
    "DTYPE": null
  },
  {
    "STUDYID": "CDISCPILOT01",
    "USUBJID": "01-701-1146",
    "SITEID": "701",
    "SITEGR1": "701",
    "TRT01P": "Xanomeline High Dose",
    "TRT01A": "Xanomeline High Dose",
    "TRT01PN": 2,
    "TRTP": "Xanomeline High Dose",
    "TRTA": "Xanomeline High Dose",
    "TRTSDT": "2013-05-20",
    "TRTEDT": "2013-06-26",
    "SAFFL": "Y",
    "ITTFL": "Y",
    "EFFFL": "Y",
    "PARAMCD": "NPTOT",
    "PARAM": "NPI-X Total (9) Score",
    "PARAMN": 1,
    "AVAL": 4,
    "BASE": 4,
    "CHG": null,
    "AVISIT": "Baseline",
    "AVISITN": 0,
    "ADT": "2013-05-20",
    "ADY": 1,
    "ABLFL": "Y",
    "ANL01FL": "Y",
    "DTYPE": null
  },
  {
    "STUDYID": "CDISCPILOT01",
    "USUBJID": "01-701-1146",
    "SITEID": "701",
    "SITEGR1": "701",
    "TRT01P": "Xanomeline High Dose",
    "TRT01A": "Xanomeline High Dose",
    "TRT01PN": 2,
    "TRTP": "Xanomeline High Dose",
    "TRTA": "Xanomeline High Dose",
    "TRTSDT": "2013-05-20",
    "TRTEDT": "2013-06-26",
    "SAFFL": "Y",
    "ITTFL": "Y",
    "EFFFL": "Y",
    "PARAMCD": "NPTOT",
    "PARAM": "NPI-X Total (9) Score",
    "PARAMN": 1,
    "AVAL": 1,
    "BASE": 4,
    "CHG": -3,
    "AVISIT": "Week 4",
    "AVISITN": 4,
    "ADT": "2013-06-16",
    "ADY": 28,
    "ABLFL": null,
    "ANL01FL": "Y",
    "DTYPE": null
  },
  {
    "STUDYID": "CDISCPILOT01",
    "USUBJID": "01-701-1146",
    "SITEID": "701",
    "SITEGR1": "701",
    "TRT01P": "Xanomeline High Dose",
    "TRT01A": "Xanomeline High Dose",
    "TRT01PN": 2,
    "TRTP": "Xanomeline High Dose",
    "TRTA": "Xanomeline High Dose",
    "TRTSDT": "2013-05-20",
    "TRTEDT": "2013-06-26",
    "SAFFL": "Y",
    "ITTFL": "Y",
    "EFFFL": "Y",
    "PARAMCD": "NPTOT",
    "PARAM": "NPI-X Total (9) Score",
    "PARAMN": 1,
    "AVAL": 1,
    "BASE": 4,
    "CHG": -3,
    "AVISIT": "Week 8",
    "AVISITN": 8,
    "ADT": "2013-06-30",
    "ADY": 42,
    "ABLFL": null,
    "ANL01FL": "Y",
    "DTYPE": null
  },
  {
    "STUDYID": "CDISCPILOT01",
    "USUBJID": "01-701-1148",
    "SITEID": "701",
    "SITEGR1": "701",
    "TRT01P": "Xanomeline High Dose",
    "TRT01A": "Xanomeline High Dose",
    "TRT01PN": 2,
    "TRTP": "Xanomeline High Dose",
    "TRTA": "Xanomeline High Dose",
    "TRTSDT": "2013-08-23",
    "TRTEDT": "2014-02-20",
    "SAFFL": "Y",
    "ITTFL": "Y",
    "EFFFL": "Y",
    "PARAMCD": "NPTOT",
    "PARAM": "NPI-X Total (9) Score",
    "PARAMN": 1,
    "AVAL": 16,
    "BASE": 16,
    "CHG": null,
    "AVISIT": "Baseline",
    "AVISITN": 0,
    "ADT": "2013-08-23",
    "ADY": 1,
    "ABLFL": "Y",
    "ANL01FL": "Y",
    "DTYPE": null
  },
  {
    "STUDYID": "CDISCPILOT01",
    "USUBJID": "01-701-1148",
    "SITEID": "701",
    "SITEGR1": "701",
    "TRT01P": "Xanomeline High Dose",
    "TRT01A": "Xanomeline High Dose",
    "TRT01PN": 2,
    "TRTP": "Xanomeline High Dose",
    "TRTA": "Xanomeline High Dose",
    "TRTSDT": "2013-08-23",
    "TRTEDT": "2014-02-20",
    "SAFFL": "Y",
    "ITTFL": "Y",
    "EFFFL": "Y",
    "PARAMCD": "NPTOT",
    "PARAM": "NPI-X Total (9) Score",
    "PARAMN": 1,
    "AVAL": 6,
    "BASE": 16,
    "CHG": -10,
    "AVISIT": "Week 4",
    "AVISITN": 4,
    "ADT": "2013-09-19",
    "ADY": 28,
    "ABLFL": null,
    "ANL01FL": "Y",
    "DTYPE": null
  },
  {
    "STUDYID": "CDISCPILOT01",
    "USUBJID": "01-701-1148",
    "SITEID": "701",
    "SITEGR1": "701",
    "TRT01P": "Xanomeline High Dose",
    "TRT01A": "Xanomeline High Dose",
    "TRT01PN": 2,
    "TRTP": "Xanomeline High Dose",
    "TRTA": "Xanomeline High Dose",
    "TRTSDT": "2013-08-23",
    "TRTEDT": "2014-02-20",
    "SAFFL": "Y",
    "ITTFL": "Y",
    "EFFFL": "Y",
    "PARAMCD": "NPTOT",
    "PARAM": "NPI-X Total (9) Score",
    "PARAMN": 1,
    "AVAL": 0,
    "BASE": 16,
    "CHG": -16,
    "AVISIT": "Week 8",
    "AVISITN": 8,
    "ADT": "2013-10-03",
    "ADY": 42,
    "ABLFL": null,
    "ANL01FL": "Y",
    "DTYPE": null
  },
  {
    "STUDYID": "CDISCPILOT01",
    "USUBJID": "01-701-1148",
    "SITEID": "701",
    "SITEGR1": "701",
    "TRT01P": "Xanomeline High Dose",
    "TRT01A": "Xanomeline High Dose",
    "TRT01PN": 2,
    "TRTP": "Xanomeline High Dose",
    "TRTA": "Xanomeline High Dose",
    "TRTSDT": "2013-08-23",
    "TRTEDT": "2014-02-20",
    "SAFFL": "Y",
    "ITTFL": "Y",
    "EFFFL": "Y",
    "PARAMCD": "NPTOT",
    "PARAM": "NPI-X Total (9) Score",
    "PARAMN": 1,
    "AVAL": 9,
    "BASE": 16,
    "CHG": -7,
    "AVISIT": "Week 12",
    "AVISITN": 12,
    "ADT": "2013-10-18",
    "ADY": 57,
    "ABLFL": null,
    "ANL01FL": "Y",
    "DTYPE": null
  },
  {
    "STUDYID": "CDISCPILOT01",
    "USUBJID": "01-701-1148",
    "SITEID": "701",
    "SITEGR1": "701",
    "TRT01P": "Xanomeline High Dose",
    "TRT01A": "Xanomeline High Dose",
    "TRT01PN": 2,
    "TRTP": "Xanomeline High Dose",
    "TRTA": "Xanomeline High Dose",
    "TRTSDT": "2013-08-23",
    "TRTEDT": "2014-02-20",
    "SAFFL": "Y",
    "ITTFL": "Y",
    "EFFFL": "Y",
    "PARAMCD": "NPTOT",
    "PARAM": "NPI-X Total (9) Score",
    "PARAMN": 1,
    "AVAL": 0,
    "BASE": 16,
    "CHG": -16,
    "AVISIT": "Week 16",
    "AVISITN": 16,
    "ADT": "2013-11-17",
    "ADY": 87,
    "ABLFL": null,
    "ANL01FL": "Y",
    "DTYPE": null
  },
  {
    "STUDYID": "CDISCPILOT01",
    "USUBJID": "01-701-1148",
    "SITEID": "701",
    "SITEGR1": "701",
    "TRT01P": "Xanomeline High Dose",
    "TRT01A": "Xanomeline High Dose",
    "TRT01PN": 2,
    "TRTP": "Xanomeline High Dose",
    "TRTA": "Xanomeline High Dose",
    "TRTSDT": "2013-08-23",
    "TRTEDT": "2014-02-20",
    "SAFFL": "Y",
    "ITTFL": "Y",
    "EFFFL": "Y",
    "PARAMCD": "NPTOT",
    "PARAM": "NPI-X Total (9) Score",
    "PARAMN": 1,
    "AVAL": 2,
    "BASE": 16,
    "CHG": -14,
    "AVISIT": "Week 20",
    "AVISITN": 20,
    "ADT": "2013-12-13",
    "ADY": 113,
    "ABLFL": null,
    "ANL01FL": "Y",
    "DTYPE": null
  },
  {
    "STUDYID": "CDISCPILOT01",
    "USUBJID": "01-701-1148",
    "SITEID": "701",
    "SITEGR1": "701",
    "TRT01P": "Xanomeline High Dose",
    "TRT01A": "Xanomeline High Dose",
    "TRT01PN": 2,
    "TRTP": "Xanomeline High Dose",
    "TRTA": "Xanomeline High Dose",
    "TRTSDT": "2013-08-23",
    "TRTEDT": "2014-02-20",
    "SAFFL": "Y",
    "ITTFL": "Y",
    "EFFFL": "Y",
    "PARAMCD": "NPTOT",
    "PARAM": "NPI-X Total (9) Score",
    "PARAMN": 1,
    "AVAL": 6,
    "BASE": 16,
    "CHG": -10,
    "AVISIT": "Week 24",
    "AVISITN": 24,
    "ADT": "2014-01-10",
    "ADY": 141,
    "ABLFL": null,
    "ANL01FL": "Y",
    "DTYPE": null
  },
  {
    "STUDYID": "CDISCPILOT01",
    "USUBJID": "01-701-1153",
    "SITEID": "701",
    "SITEGR1": "701",
    "TRT01P": "Placebo",
    "TRT01A": "Placebo",
    "TRT01PN": 0,
    "TRTP": "Placebo",
    "TRTA": "Placebo",
    "TRTSDT": "2013-09-23",
    "TRTEDT": "2014-03-16",
    "SAFFL": "Y",
    "ITTFL": "Y",
    "EFFFL": "Y",
    "PARAMCD": "NPTOT",
    "PARAM": "NPI-X Total (9) Score",
    "PARAMN": 1,
    "AVAL": 15,
    "BASE": 15,
    "CHG": null,
    "AVISIT": "Baseline",
    "AVISITN": 0,
    "ADT": "2013-09-23",
    "ADY": 1,
    "ABLFL": "Y",
    "ANL01FL": "Y",
    "DTYPE": null
  },
  {
    "STUDYID": "CDISCPILOT01",
    "USUBJID": "01-701-1153",
    "SITEID": "701",
    "SITEGR1": "701",
    "TRT01P": "Placebo",
    "TRT01A": "Placebo",
    "TRT01PN": 0,
    "TRTP": "Placebo",
    "TRTA": "Placebo",
    "TRTSDT": "2013-09-23",
    "TRTEDT": "2014-03-16",
    "SAFFL": "Y",
    "ITTFL": "Y",
    "EFFFL": "Y",
    "PARAMCD": "NPTOT",
    "PARAM": "NPI-X Total (9) Score",
    "PARAMN": 1,
    "AVAL": 8,
    "BASE": 15,
    "CHG": -7,
    "AVISIT": "Week 4",
    "AVISITN": 4,
    "ADT": "2013-10-19",
    "ADY": 27,
    "ABLFL": null,
    "ANL01FL": "Y",
    "DTYPE": null
  },
  {
    "STUDYID": "CDISCPILOT01",
    "USUBJID": "01-701-1153",
    "SITEID": "701",
    "SITEGR1": "701",
    "TRT01P": "Placebo",
    "TRT01A": "Placebo",
    "TRT01PN": 0,
    "TRTP": "Placebo",
    "TRTA": "Placebo",
    "TRTSDT": "2013-09-23",
    "TRTEDT": "2014-03-16",
    "SAFFL": "Y",
    "ITTFL": "Y",
    "EFFFL": "Y",
    "PARAMCD": "NPTOT",
    "PARAM": "NPI-X Total (9) Score",
    "PARAMN": 1,
    "AVAL": 9,
    "BASE": 15,
    "CHG": -6,
    "AVISIT": "Week 8",
    "AVISITN": 8,
    "ADT": "2013-11-04",
    "ADY": 43,
    "ABLFL": null,
    "ANL01FL": "Y",
    "DTYPE": null
  },
  {
    "STUDYID": "CDISCPILOT01",
    "USUBJID": "01-701-1153",
    "SITEID": "701",
    "SITEGR1": "701",
    "TRT01P": "Placebo",
    "TRT01A": "Placebo",
    "TRT01PN": 0,
    "TRTP": "Placebo",
    "TRTA": "Placebo",
    "TRTSDT": "2013-09-23",
    "TRTEDT": "2014-03-16",
    "SAFFL": "Y",
    "ITTFL": "Y",
    "EFFFL": "Y",
    "PARAMCD": "NPTOT",
    "PARAM": "NPI-X Total (9) Score",
    "PARAMN": 1,
    "AVAL": 9,
    "BASE": 15,
    "CHG": -6,
    "AVISIT": "Week 12",
    "AVISITN": 12,
    "ADT": "2013-11-18",
    "ADY": 57,
    "ABLFL": null,
    "ANL01FL": "Y",
    "DTYPE": null
  },
  {
    "STUDYID": "CDISCPILOT01",
    "USUBJID": "01-701-1153",
    "SITEID": "701",
    "SITEGR1": "701",
    "TRT01P": "Placebo",
    "TRT01A": "Placebo",
    "TRT01PN": 0,
    "TRTP": "Placebo",
    "TRTA": "Placebo",
    "TRTSDT": "2013-09-23",
    "TRTEDT": "2014-03-16",
    "SAFFL": "Y",
    "ITTFL": "Y",
    "EFFFL": "Y",
    "PARAMCD": "NPTOT",
    "PARAM": "NPI-X Total (9) Score",
    "PARAMN": 1,
    "AVAL": 15,
    "BASE": 15,
    "CHG": 0,
    "AVISIT": "Week 16",
    "AVISITN": 16,
    "ADT": "2013-12-16",
    "ADY": 85,
    "ABLFL": null,
    "ANL01FL": "Y",
    "DTYPE": null
  },
  {
    "STUDYID": "CDISCPILOT01",
    "USUBJID": "01-701-1153",
    "SITEID": "701",
    "SITEGR1": "701",
    "TRT01P": "Placebo",
    "TRT01A": "Placebo",
    "TRT01PN": 0,
    "TRTP": "Placebo",
    "TRTA": "Placebo",
    "TRTSDT": "2013-09-23",
    "TRTEDT": "2014-03-16",
    "SAFFL": "Y",
    "ITTFL": "Y",
    "EFFFL": "Y",
    "PARAMCD": "NPTOT",
    "PARAM": "NPI-X Total (9) Score",
    "PARAMN": 1,
    "AVAL": 5,
    "BASE": 15,
    "CHG": -10,
    "AVISIT": "Week 20",
    "AVISITN": 20,
    "ADT": "2014-01-08",
    "ADY": 108,
    "ABLFL": null,
    "ANL01FL": "Y",
    "DTYPE": null
  },
  {
    "STUDYID": "CDISCPILOT01",
    "USUBJID": "01-701-1153",
    "SITEID": "701",
    "SITEGR1": "701",
    "TRT01P": "Placebo",
    "TRT01A": "Placebo",
    "TRT01PN": 0,
    "TRTP": "Placebo",
    "TRTA": "Placebo",
    "TRTSDT": "2013-09-23",
    "TRTEDT": "2014-03-16",
    "SAFFL": "Y",
    "ITTFL": "Y",
    "EFFFL": "Y",
    "PARAMCD": "NPTOT",
    "PARAM": "NPI-X Total (9) Score",
    "PARAMN": 1,
    "AVAL": 17,
    "BASE": 15,
    "CHG": 2,
    "AVISIT": "Week 24",
    "AVISITN": 24,
    "ADT": "2014-02-11",
    "ADY": 142,
    "ABLFL": null,
    "ANL01FL": "Y",
    "DTYPE": null
  },
  {
    "STUDYID": "CDISCPILOT01",
    "USUBJID": "01-701-1180",
    "SITEID": "701",
    "SITEGR1": "701",
    "TRT01P": "Xanomeline High Dose",
    "TRT01A": "Xanomeline High Dose",
    "TRT01PN": 2,
    "TRTP": "Xanomeline High Dose",
    "TRTA": "Xanomeline High Dose",
    "TRTSDT": "2013-02-12",
    "TRTEDT": "2013-03-18",
    "SAFFL": "Y",
    "ITTFL": "Y",
    "EFFFL": "Y",
    "PARAMCD": "NPTOT",
    "PARAM": "NPI-X Total (9) Score",
    "PARAMN": 1,
    "AVAL": 0,
    "BASE": 0,
    "CHG": null,
    "AVISIT": "Baseline",
    "AVISITN": 0,
    "ADT": "2013-02-12",
    "ADY": 1,
    "ABLFL": "Y",
    "ANL01FL": "Y",
    "DTYPE": null
  },
  {
    "STUDYID": "CDISCPILOT01",
    "USUBJID": "01-701-1180",
    "SITEID": "701",
    "SITEGR1": "701",
    "TRT01P": "Xanomeline High Dose",
    "TRT01A": "Xanomeline High Dose",
    "TRT01PN": 2,
    "TRTP": "Xanomeline High Dose",
    "TRTA": "Xanomeline High Dose",
    "TRTSDT": "2013-02-12",
    "TRTEDT": "2013-03-18",
    "SAFFL": "Y",
    "ITTFL": "Y",
    "EFFFL": "Y",
    "PARAMCD": "NPTOT",
    "PARAM": "NPI-X Total (9) Score",
    "PARAMN": 1,
    "AVAL": 0,
    "BASE": 0,
    "CHG": 0,
    "AVISIT": "Week 4",
    "AVISITN": 4,
    "ADT": "2013-03-11",
    "ADY": 28,
    "ABLFL": null,
    "ANL01FL": "Y",
    "DTYPE": null
  },
  {
    "STUDYID": "CDISCPILOT01",
    "USUBJID": "01-701-1180",
    "SITEID": "701",
    "SITEGR1": "701",
    "TRT01P": "Xanomeline High Dose",
    "TRT01A": "Xanomeline High Dose",
    "TRT01PN": 2,
    "TRTP": "Xanomeline High Dose",
    "TRTA": "Xanomeline High Dose",
    "TRTSDT": "2013-02-12",
    "TRTEDT": "2013-03-18",
    "SAFFL": "Y",
    "ITTFL": "Y",
    "EFFFL": "Y",
    "PARAMCD": "NPTOT",
    "PARAM": "NPI-X Total (9) Score",
    "PARAMN": 1,
    "AVAL": 0,
    "BASE": 0,
    "CHG": 0,
    "AVISIT": "Week 8",
    "AVISITN": 8,
    "ADT": "2013-03-23",
    "ADY": 40,
    "ABLFL": null,
    "ANL01FL": "Y",
    "DTYPE": null
  },
  {
    "STUDYID": "CDISCPILOT01",
    "USUBJID": "01-701-1181",
    "SITEID": "701",
    "SITEGR1": "701",
    "TRT01P": "Xanomeline High Dose",
    "TRT01A": "Xanomeline Low Dose",
    "TRT01PN": 2,
    "TRTP": "Xanomeline High Dose",
    "TRTA": "Xanomeline Low Dose",
    "TRTSDT": "2013-12-05",
    "TRTEDT": "2013-12-09",
    "SAFFL": "Y",
    "ITTFL": "Y",
    "EFFFL": "Y",
    "PARAMCD": "NPTOT",
    "PARAM": "NPI-X Total (9) Score",
    "PARAMN": 1,
    "AVAL": 10,
    "BASE": 10,
    "CHG": null,
    "AVISIT": "Baseline",
    "AVISITN": 0,
    "ADT": "2013-12-05",
    "ADY": 1,
    "ABLFL": "Y",
    "ANL01FL": "Y",
    "DTYPE": null
  },
  {
    "STUDYID": "CDISCPILOT01",
    "USUBJID": "01-701-1188",
    "SITEID": "701",
    "SITEGR1": "701",
    "TRT01P": "Xanomeline Low Dose",
    "TRT01A": "Xanomeline Low Dose",
    "TRT01PN": 1,
    "TRTP": "Xanomeline Low Dose",
    "TRTA": "Xanomeline Low Dose",
    "TRTSDT": "2013-02-15",
    "TRTEDT": "2013-03-24",
    "SAFFL": "Y",
    "ITTFL": "Y",
    "EFFFL": "Y",
    "PARAMCD": "NPTOT",
    "PARAM": "NPI-X Total (9) Score",
    "PARAMN": 1,
    "AVAL": 0,
    "BASE": 0,
    "CHG": null,
    "AVISIT": "Baseline",
    "AVISITN": 0,
    "ADT": "2013-02-15",
    "ADY": 1,
    "ABLFL": "Y",
    "ANL01FL": "Y",
    "DTYPE": null
  },
  {
    "STUDYID": "CDISCPILOT01",
    "USUBJID": "01-701-1188",
    "SITEID": "701",
    "SITEGR1": "701",
    "TRT01P": "Xanomeline Low Dose",
    "TRT01A": "Xanomeline Low Dose",
    "TRT01PN": 1,
    "TRTP": "Xanomeline Low Dose",
    "TRTA": "Xanomeline Low Dose",
    "TRTSDT": "2013-02-15",
    "TRTEDT": "2013-03-24",
    "SAFFL": "Y",
    "ITTFL": "Y",
    "EFFFL": "Y",
    "PARAMCD": "NPTOT",
    "PARAM": "NPI-X Total (9) Score",
    "PARAMN": 1,
    "AVAL": 0,
    "BASE": 0,
    "CHG": 0,
    "AVISIT": "Week 4",
    "AVISITN": 4,
    "ADT": "2013-03-16",
    "ADY": 30,
    "ABLFL": null,
    "ANL01FL": "Y",
    "DTYPE": null
  },
  {
    "STUDYID": "CDISCPILOT01",
    "USUBJID": "01-701-1188",
    "SITEID": "701",
    "SITEGR1": "701",
    "TRT01P": "Xanomeline Low Dose",
    "TRT01A": "Xanomeline Low Dose",
    "TRT01PN": 1,
    "TRTP": "Xanomeline Low Dose",
    "TRTA": "Xanomeline Low Dose",
    "TRTSDT": "2013-02-15",
    "TRTEDT": "2013-03-24",
    "SAFFL": "Y",
    "ITTFL": "Y",
    "EFFFL": "Y",
    "PARAMCD": "NPTOT",
    "PARAM": "NPI-X Total (9) Score",
    "PARAMN": 1,
    "AVAL": 0,
    "BASE": 0,
    "CHG": 0,
    "AVISIT": "Week 8",
    "AVISITN": 8,
    "ADT": "2013-03-25",
    "ADY": 39,
    "ABLFL": null,
    "ANL01FL": "Y",
    "DTYPE": null
  },
  {
    "STUDYID": "CDISCPILOT01",
    "USUBJID": "01-701-1192",
    "SITEID": "701",
    "SITEGR1": "701",
    "TRT01P": "Xanomeline Low Dose",
    "TRT01A": "Xanomeline Low Dose",
    "TRT01PN": 1,
    "TRTP": "Xanomeline Low Dose",
    "TRTA": "Xanomeline Low Dose",
    "TRTSDT": "2012-07-22",
    "TRTEDT": "2013-01-20",
    "SAFFL": "Y",
    "ITTFL": "Y",
    "EFFFL": "Y",
    "PARAMCD": "NPTOT",
    "PARAM": "NPI-X Total (9) Score",
    "PARAMN": 1,
    "AVAL": 2,
    "BASE": 2,
    "CHG": null,
    "AVISIT": "Baseline",
    "AVISITN": 0,
    "ADT": "2012-07-22",
    "ADY": 1,
    "ABLFL": "Y",
    "ANL01FL": "Y",
    "DTYPE": null
  },
  {
    "STUDYID": "CDISCPILOT01",
    "USUBJID": "01-701-1192",
    "SITEID": "701",
    "SITEGR1": "701",
    "TRT01P": "Xanomeline Low Dose",
    "TRT01A": "Xanomeline Low Dose",
    "TRT01PN": 1,
    "TRTP": "Xanomeline Low Dose",
    "TRTA": "Xanomeline Low Dose",
    "TRTSDT": "2012-07-22",
    "TRTEDT": "2013-01-20",
    "SAFFL": "Y",
    "ITTFL": "Y",
    "EFFFL": "Y",
    "PARAMCD": "NPTOT",
    "PARAM": "NPI-X Total (9) Score",
    "PARAMN": 1,
    "AVAL": 6,
    "BASE": 2,
    "CHG": 4,
    "AVISIT": "Week 4",
    "AVISITN": 4,
    "ADT": "2012-08-21",
    "ADY": 31,
    "ABLFL": null,
    "ANL01FL": "Y",
    "DTYPE": null
  },
  {
    "STUDYID": "CDISCPILOT01",
    "USUBJID": "01-701-1192",
    "SITEID": "701",
    "SITEGR1": "701",
    "TRT01P": "Xanomeline Low Dose",
    "TRT01A": "Xanomeline Low Dose",
    "TRT01PN": 1,
    "TRTP": "Xanomeline Low Dose",
    "TRTA": "Xanomeline Low Dose",
    "TRTSDT": "2012-07-22",
    "TRTEDT": "2013-01-20",
    "SAFFL": "Y",
    "ITTFL": "Y",
    "EFFFL": "Y",
    "PARAMCD": "NPTOT",
    "PARAM": "NPI-X Total (9) Score",
    "PARAMN": 1,
    "AVAL": 4,
    "BASE": 2,
    "CHG": 2,
    "AVISIT": "Week 8",
    "AVISITN": 8,
    "ADT": "2012-09-04",
    "ADY": 45,
    "ABLFL": null,
    "ANL01FL": "Y",
    "DTYPE": null
  },
  {
    "STUDYID": "CDISCPILOT01",
    "USUBJID": "01-701-1192",
    "SITEID": "701",
    "SITEGR1": "701",
    "TRT01P": "Xanomeline Low Dose",
    "TRT01A": "Xanomeline Low Dose",
    "TRT01PN": 1,
    "TRTP": "Xanomeline Low Dose",
    "TRTA": "Xanomeline Low Dose",
    "TRTSDT": "2012-07-22",
    "TRTEDT": "2013-01-20",
    "SAFFL": "Y",
    "ITTFL": "Y",
    "EFFFL": "Y",
    "PARAMCD": "NPTOT",
    "PARAM": "NPI-X Total (9) Score",
    "PARAMN": 1,
    "AVAL": 2,
    "BASE": 2,
    "CHG": 0,
    "AVISIT": "Week 12",
    "AVISITN": 12,
    "ADT": "2012-09-23",
    "ADY": 64,
    "ABLFL": null,
    "ANL01FL": "Y",
    "DTYPE": null
  },
  {
    "STUDYID": "CDISCPILOT01",
    "USUBJID": "01-701-1192",
    "SITEID": "701",
    "SITEGR1": "701",
    "TRT01P": "Xanomeline Low Dose",
    "TRT01A": "Xanomeline Low Dose",
    "TRT01PN": 1,
    "TRTP": "Xanomeline Low Dose",
    "TRTA": "Xanomeline Low Dose",
    "TRTSDT": "2012-07-22",
    "TRTEDT": "2013-01-20",
    "SAFFL": "Y",
    "ITTFL": "Y",
    "EFFFL": "Y",
    "PARAMCD": "NPTOT",
    "PARAM": "NPI-X Total (9) Score",
    "PARAMN": 1,
    "AVAL": 2,
    "BASE": 2,
    "CHG": 0,
    "AVISIT": "Week 16",
    "AVISITN": 16,
    "ADT": "2012-10-14",
    "ADY": 85,
    "ABLFL": null,
    "ANL01FL": "Y",
    "DTYPE": null
  },
  {
    "STUDYID": "CDISCPILOT01",
    "USUBJID": "01-701-1192",
    "SITEID": "701",
    "SITEGR1": "701",
    "TRT01P": "Xanomeline Low Dose",
    "TRT01A": "Xanomeline Low Dose",
    "TRT01PN": 1,
    "TRTP": "Xanomeline Low Dose",
    "TRTA": "Xanomeline Low Dose",
    "TRTSDT": "2012-07-22",
    "TRTEDT": "2013-01-20",
    "SAFFL": "Y",
    "ITTFL": "Y",
    "EFFFL": "Y",
    "PARAMCD": "NPTOT",
    "PARAM": "NPI-X Total (9) Score",
    "PARAMN": 1,
    "AVAL": 0,
    "BASE": 2,
    "CHG": -2,
    "AVISIT": "Week 20",
    "AVISITN": 20,
    "ADT": "2012-11-15",
    "ADY": 117,
    "ABLFL": null,
    "ANL01FL": "Y",
    "DTYPE": null
  },
  {
    "STUDYID": "CDISCPILOT01",
    "USUBJID": "01-701-1192",
    "SITEID": "701",
    "SITEGR1": "701",
    "TRT01P": "Xanomeline Low Dose",
    "TRT01A": "Xanomeline Low Dose",
    "TRT01PN": 1,
    "TRTP": "Xanomeline Low Dose",
    "TRTA": "Xanomeline Low Dose",
    "TRTSDT": "2012-07-22",
    "TRTEDT": "2013-01-20",
    "SAFFL": "Y",
    "ITTFL": "Y",
    "EFFFL": "Y",
    "PARAMCD": "NPTOT",
    "PARAM": "NPI-X Total (9) Score",
    "PARAMN": 1,
    "AVAL": 0,
    "BASE": 2,
    "CHG": -2,
    "AVISIT": "Week 24",
    "AVISITN": 24,
    "ADT": "2012-12-13",
    "ADY": 145,
    "ABLFL": null,
    "ANL01FL": "Y",
    "DTYPE": null
  },
  {
    "STUDYID": "CDISCPILOT01",
    "USUBJID": "01-701-1203",
    "SITEID": "701",
    "SITEGR1": "701",
    "TRT01P": "Placebo",
    "TRT01A": "Placebo",
    "TRT01PN": 0,
    "TRTP": "Placebo",
    "TRTA": "Placebo",
    "TRTSDT": "2013-02-02",
    "TRTEDT": "2013-08-03",
    "SAFFL": "Y",
    "ITTFL": "Y",
    "EFFFL": "Y",
    "PARAMCD": "NPTOT",
    "PARAM": "NPI-X Total (9) Score",
    "PARAMN": 1,
    "AVAL": 36,
    "BASE": 36,
    "CHG": null,
    "AVISIT": "Baseline",
    "AVISITN": 0,
    "ADT": "2013-02-02",
    "ADY": 1,
    "ABLFL": "Y",
    "ANL01FL": "Y",
    "DTYPE": null
  },
  {
    "STUDYID": "CDISCPILOT01",
    "USUBJID": "01-701-1203",
    "SITEID": "701",
    "SITEGR1": "701",
    "TRT01P": "Placebo",
    "TRT01A": "Placebo",
    "TRT01PN": 0,
    "TRTP": "Placebo",
    "TRTA": "Placebo",
    "TRTSDT": "2013-02-02",
    "TRTEDT": "2013-08-03",
    "SAFFL": "Y",
    "ITTFL": "Y",
    "EFFFL": "Y",
    "PARAMCD": "NPTOT",
    "PARAM": "NPI-X Total (9) Score",
    "PARAMN": 1,
    "AVAL": 6,
    "BASE": 36,
    "CHG": -30,
    "AVISIT": "Week 4",
    "AVISITN": 4,
    "ADT": "2013-03-02",
    "ADY": 29,
    "ABLFL": null,
    "ANL01FL": "Y",
    "DTYPE": null
  },
  {
    "STUDYID": "CDISCPILOT01",
    "USUBJID": "01-701-1203",
    "SITEID": "701",
    "SITEGR1": "701",
    "TRT01P": "Placebo",
    "TRT01A": "Placebo",
    "TRT01PN": 0,
    "TRTP": "Placebo",
    "TRTA": "Placebo",
    "TRTSDT": "2013-02-02",
    "TRTEDT": "2013-08-03",
    "SAFFL": "Y",
    "ITTFL": "Y",
    "EFFFL": "Y",
    "PARAMCD": "NPTOT",
    "PARAM": "NPI-X Total (9) Score",
    "PARAMN": 1,
    "AVAL": 6,
    "BASE": 36,
    "CHG": -30,
    "AVISIT": "Week 8",
    "AVISITN": 8,
    "ADT": "2013-03-16",
    "ADY": 43,
    "ABLFL": null,
    "ANL01FL": "Y",
    "DTYPE": null
  },
  {
    "STUDYID": "CDISCPILOT01",
    "USUBJID": "01-701-1203",
    "SITEID": "701",
    "SITEGR1": "701",
    "TRT01P": "Placebo",
    "TRT01A": "Placebo",
    "TRT01PN": 0,
    "TRTP": "Placebo",
    "TRTA": "Placebo",
    "TRTSDT": "2013-02-02",
    "TRTEDT": "2013-08-03",
    "SAFFL": "Y",
    "ITTFL": "Y",
    "EFFFL": "Y",
    "PARAMCD": "NPTOT",
    "PARAM": "NPI-X Total (9) Score",
    "PARAMN": 1,
    "AVAL": 11,
    "BASE": 36,
    "CHG": -25,
    "AVISIT": "Week 12",
    "AVISITN": 12,
    "ADT": "2013-03-30",
    "ADY": 57,
    "ABLFL": null,
    "ANL01FL": "Y",
    "DTYPE": null
  },
  {
    "STUDYID": "CDISCPILOT01",
    "USUBJID": "01-701-1203",
    "SITEID": "701",
    "SITEGR1": "701",
    "TRT01P": "Placebo",
    "TRT01A": "Placebo",
    "TRT01PN": 0,
    "TRTP": "Placebo",
    "TRTA": "Placebo",
    "TRTSDT": "2013-02-02",
    "TRTEDT": "2013-08-03",
    "SAFFL": "Y",
    "ITTFL": "Y",
    "EFFFL": "Y",
    "PARAMCD": "NPTOT",
    "PARAM": "NPI-X Total (9) Score",
    "PARAMN": 1,
    "AVAL": 11,
    "BASE": 36,
    "CHG": -25,
    "AVISIT": "Week 16",
    "AVISITN": 16,
    "ADT": "2013-05-09",
    "ADY": 97,
    "ABLFL": null,
    "ANL01FL": "Y",
    "DTYPE": null
  },
  {
    "STUDYID": "CDISCPILOT01",
    "USUBJID": "01-701-1203",
    "SITEID": "701",
    "SITEGR1": "701",
    "TRT01P": "Placebo",
    "TRT01A": "Placebo",
    "TRT01PN": 0,
    "TRTP": "Placebo",
    "TRTA": "Placebo",
    "TRTSDT": "2013-02-02",
    "TRTEDT": "2013-08-03",
    "SAFFL": "Y",
    "ITTFL": "Y",
    "EFFFL": "Y",
    "PARAMCD": "NPTOT",
    "PARAM": "NPI-X Total (9) Score",
    "PARAMN": 1,
    "AVAL": 26,
    "BASE": 36,
    "CHG": -10,
    "AVISIT": "Week 20",
    "AVISITN": 20,
    "ADT": "2013-05-25",
    "ADY": 113,
    "ABLFL": null,
    "ANL01FL": "Y",
    "DTYPE": null
  },
  {
    "STUDYID": "CDISCPILOT01",
    "USUBJID": "01-701-1203",
    "SITEID": "701",
    "SITEGR1": "701",
    "TRT01P": "Placebo",
    "TRT01A": "Placebo",
    "TRT01PN": 0,
    "TRTP": "Placebo",
    "TRTA": "Placebo",
    "TRTSDT": "2013-02-02",
    "TRTEDT": "2013-08-03",
    "SAFFL": "Y",
    "ITTFL": "Y",
    "EFFFL": "Y",
    "PARAMCD": "NPTOT",
    "PARAM": "NPI-X Total (9) Score",
    "PARAMN": 1,
    "AVAL": 4,
    "BASE": 36,
    "CHG": -32,
    "AVISIT": "Week 24",
    "AVISITN": 24,
    "ADT": "2013-06-22",
    "ADY": 141,
    "ABLFL": null,
    "ANL01FL": "Y",
    "DTYPE": null
  },
  {
    "STUDYID": "CDISCPILOT01",
    "USUBJID": "01-701-1211",
    "SITEID": "701",
    "SITEGR1": "701",
    "TRT01P": "Xanomeline Low Dose",
    "TRT01A": "Xanomeline Low Dose",
    "TRT01PN": 1,
    "TRTP": "Xanomeline Low Dose",
    "TRTA": "Xanomeline Low Dose",
    "TRTSDT": "2012-11-15",
    "TRTEDT": "2013-01-12",
    "SAFFL": "Y",
    "ITTFL": "Y",
    "EFFFL": "Y",
    "PARAMCD": "NPTOT",
    "PARAM": "NPI-X Total (9) Score",
    "PARAMN": 1,
    "AVAL": 4,
    "BASE": 4,
    "CHG": null,
    "AVISIT": "Baseline",
    "AVISITN": 0,
    "ADT": "2012-11-15",
    "ADY": 1,
    "ABLFL": "Y",
    "ANL01FL": "Y",
    "DTYPE": null
  },
  {
    "STUDYID": "CDISCPILOT01",
    "USUBJID": "01-701-1211",
    "SITEID": "701",
    "SITEGR1": "701",
    "TRT01P": "Xanomeline Low Dose",
    "TRT01A": "Xanomeline Low Dose",
    "TRT01PN": 1,
    "TRTP": "Xanomeline Low Dose",
    "TRTA": "Xanomeline Low Dose",
    "TRTSDT": "2012-11-15",
    "TRTEDT": "2013-01-12",
    "SAFFL": "Y",
    "ITTFL": "Y",
    "EFFFL": "Y",
    "PARAMCD": "NPTOT",
    "PARAM": "NPI-X Total (9) Score",
    "PARAMN": 1,
    "AVAL": 5,
    "BASE": 4,
    "CHG": 1,
    "AVISIT": "Week 4",
    "AVISITN": 4,
    "ADT": "2012-12-11",
    "ADY": 27,
    "ABLFL": null,
    "ANL01FL": "Y",
    "DTYPE": null
  },
  {
    "STUDYID": "CDISCPILOT01",
    "USUBJID": "01-701-1211",
    "SITEID": "701",
    "SITEGR1": "701",
    "TRT01P": "Xanomeline Low Dose",
    "TRT01A": "Xanomeline Low Dose",
    "TRT01PN": 1,
    "TRTP": "Xanomeline Low Dose",
    "TRTA": "Xanomeline Low Dose",
    "TRTSDT": "2012-11-15",
    "TRTEDT": "2013-01-12",
    "SAFFL": "Y",
    "ITTFL": "Y",
    "EFFFL": "Y",
    "PARAMCD": "NPTOT",
    "PARAM": "NPI-X Total (9) Score",
    "PARAMN": 1,
    "AVAL": 5,
    "BASE": 4,
    "CHG": 1,
    "AVISIT": "Week 8",
    "AVISITN": 8,
    "ADT": "2012-12-25",
    "ADY": 41,
    "ABLFL": null,
    "ANL01FL": "Y",
    "DTYPE": null
  },
  {
    "STUDYID": "CDISCPILOT01",
    "USUBJID": "01-701-1211",
    "SITEID": "701",
    "SITEGR1": "701",
    "TRT01P": "Xanomeline Low Dose",
    "TRT01A": "Xanomeline Low Dose",
    "TRT01PN": 1,
    "TRTP": "Xanomeline Low Dose",
    "TRTA": "Xanomeline Low Dose",
    "TRTSDT": "2012-11-15",
    "TRTEDT": "2013-01-12",
    "SAFFL": "Y",
    "ITTFL": "Y",
    "EFFFL": "Y",
    "PARAMCD": "NPTOT",
    "PARAM": "NPI-X Total (9) Score",
    "PARAMN": 1,
    "AVAL": 7,
    "BASE": 4,
    "CHG": 3,
    "AVISIT": "Week 12",
    "AVISITN": 12,
    "ADT": "2013-01-08",
    "ADY": 55,
    "ABLFL": null,
    "ANL01FL": "Y",
    "DTYPE": null
  },
  {
    "STUDYID": "CDISCPILOT01",
    "USUBJID": "01-701-1234",
    "SITEID": "701",
    "SITEGR1": "701",
    "TRT01P": "Placebo",
    "TRT01A": "Placebo",
    "TRT01PN": 0,
    "TRTP": "Placebo",
    "TRTA": "Placebo",
    "TRTSDT": "2013-03-30",
    "TRTEDT": "2013-09-22",
    "SAFFL": "Y",
    "ITTFL": "Y",
    "EFFFL": "Y",
    "PARAMCD": "NPTOT",
    "PARAM": "NPI-X Total (9) Score",
    "PARAMN": 1,
    "AVAL": 0,
    "BASE": 0,
    "CHG": null,
    "AVISIT": "Baseline",
    "AVISITN": 0,
    "ADT": "2013-03-30",
    "ADY": 1,
    "ABLFL": "Y",
    "ANL01FL": "Y",
    "DTYPE": null
  },
  {
    "STUDYID": "CDISCPILOT01",
    "USUBJID": "01-701-1234",
    "SITEID": "701",
    "SITEGR1": "701",
    "TRT01P": "Placebo",
    "TRT01A": "Placebo",
    "TRT01PN": 0,
    "TRTP": "Placebo",
    "TRTA": "Placebo",
    "TRTSDT": "2013-03-30",
    "TRTEDT": "2013-09-22",
    "SAFFL": "Y",
    "ITTFL": "Y",
    "EFFFL": "Y",
    "PARAMCD": "NPTOT",
    "PARAM": "NPI-X Total (9) Score",
    "PARAMN": 1,
    "AVAL": 0,
    "BASE": 0,
    "CHG": 0,
    "AVISIT": "Week 4",
    "AVISITN": 4,
    "ADT": "2013-04-28",
    "ADY": 30,
    "ABLFL": null,
    "ANL01FL": "Y",
    "DTYPE": null
  },
  {
    "STUDYID": "CDISCPILOT01",
    "USUBJID": "01-701-1234",
    "SITEID": "701",
    "SITEGR1": "701",
    "TRT01P": "Placebo",
    "TRT01A": "Placebo",
    "TRT01PN": 0,
    "TRTP": "Placebo",
    "TRTA": "Placebo",
    "TRTSDT": "2013-03-30",
    "TRTEDT": "2013-09-22",
    "SAFFL": "Y",
    "ITTFL": "Y",
    "EFFFL": "Y",
    "PARAMCD": "NPTOT",
    "PARAM": "NPI-X Total (9) Score",
    "PARAMN": 1,
    "AVAL": 0,
    "BASE": 0,
    "CHG": 0,
    "AVISIT": "Week 8",
    "AVISITN": 8,
    "ADT": "2013-05-08",
    "ADY": 40,
    "ABLFL": null,
    "ANL01FL": "Y",
    "DTYPE": null
  },
  {
    "STUDYID": "CDISCPILOT01",
    "USUBJID": "01-701-1234",
    "SITEID": "701",
    "SITEGR1": "701",
    "TRT01P": "Placebo",
    "TRT01A": "Placebo",
    "TRT01PN": 0,
    "TRTP": "Placebo",
    "TRTA": "Placebo",
    "TRTSDT": "2013-03-30",
    "TRTEDT": "2013-09-22",
    "SAFFL": "Y",
    "ITTFL": "Y",
    "EFFFL": "Y",
    "PARAMCD": "NPTOT",
    "PARAM": "NPI-X Total (9) Score",
    "PARAMN": 1,
    "AVAL": 0,
    "BASE": 0,
    "CHG": 0,
    "AVISIT": "Week 12",
    "AVISITN": 12,
    "ADT": "2013-05-26",
    "ADY": 58,
    "ABLFL": null,
    "ANL01FL": "Y",
    "DTYPE": null
  },
  {
    "STUDYID": "CDISCPILOT01",
    "USUBJID": "01-701-1234",
    "SITEID": "701",
    "SITEGR1": "701",
    "TRT01P": "Placebo",
    "TRT01A": "Placebo",
    "TRT01PN": 0,
    "TRTP": "Placebo",
    "TRTA": "Placebo",
    "TRTSDT": "2013-03-30",
    "TRTEDT": "2013-09-22",
    "SAFFL": "Y",
    "ITTFL": "Y",
    "EFFFL": "Y",
    "PARAMCD": "NPTOT",
    "PARAM": "NPI-X Total (9) Score",
    "PARAMN": 1,
    "AVAL": 0,
    "BASE": 0,
    "CHG": 0,
    "AVISIT": "Week 16",
    "AVISITN": 16,
    "ADT": "2013-07-07",
    "ADY": 100,
    "ABLFL": null,
    "ANL01FL": "Y",
    "DTYPE": null
  },
  {
    "STUDYID": "CDISCPILOT01",
    "USUBJID": "01-701-1234",
    "SITEID": "701",
    "SITEGR1": "701",
    "TRT01P": "Placebo",
    "TRT01A": "Placebo",
    "TRT01PN": 0,
    "TRTP": "Placebo",
    "TRTA": "Placebo",
    "TRTSDT": "2013-03-30",
    "TRTEDT": "2013-09-22",
    "SAFFL": "Y",
    "ITTFL": "Y",
    "EFFFL": "Y",
    "PARAMCD": "NPTOT",
    "PARAM": "NPI-X Total (9) Score",
    "PARAMN": 1,
    "AVAL": 0,
    "BASE": 0,
    "CHG": 0,
    "AVISIT": "Week 20",
    "AVISITN": 20,
    "ADT": "2013-07-27",
    "ADY": 120,
    "ABLFL": null,
    "ANL01FL": "Y",
    "DTYPE": null
  },
  {
    "STUDYID": "CDISCPILOT01",
    "USUBJID": "01-701-1234",
    "SITEID": "701",
    "SITEGR1": "701",
    "TRT01P": "Placebo",
    "TRT01A": "Placebo",
    "TRT01PN": 0,
    "TRTP": "Placebo",
    "TRTA": "Placebo",
    "TRTSDT": "2013-03-30",
    "TRTEDT": "2013-09-22",
    "SAFFL": "Y",
    "ITTFL": "Y",
    "EFFFL": "Y",
    "PARAMCD": "NPTOT",
    "PARAM": "NPI-X Total (9) Score",
    "PARAMN": 1,
    "AVAL": 0,
    "BASE": 0,
    "CHG": 0,
    "AVISIT": "Week 24",
    "AVISITN": 24,
    "ADT": "2013-08-18",
    "ADY": 142,
    "ABLFL": null,
    "ANL01FL": "Y",
    "DTYPE": null
  },
  {
    "STUDYID": "CDISCPILOT01",
    "USUBJID": "01-701-1239",
    "SITEID": "701",
    "SITEGR1": "701",
    "TRT01P": "Xanomeline High Dose",
    "TRT01A": "Xanomeline High Dose",
    "TRT01PN": 2,
    "TRTP": "Xanomeline High Dose",
    "TRTA": "Xanomeline High Dose",
    "TRTSDT": "2014-01-11",
    "TRTEDT": "2014-07-10",
    "SAFFL": "Y",
    "ITTFL": "Y",
    "EFFFL": "Y",
    "PARAMCD": "NPTOT",
    "PARAM": "NPI-X Total (9) Score",
    "PARAMN": 1,
    "AVAL": 1,
    "BASE": 1,
    "CHG": null,
    "AVISIT": "Baseline",
    "AVISITN": 0,
    "ADT": "2014-01-11",
    "ADY": 1,
    "ABLFL": "Y",
    "ANL01FL": "Y",
    "DTYPE": null
  },
  {
    "STUDYID": "CDISCPILOT01",
    "USUBJID": "01-701-1239",
    "SITEID": "701",
    "SITEGR1": "701",
    "TRT01P": "Xanomeline High Dose",
    "TRT01A": "Xanomeline High Dose",
    "TRT01PN": 2,
    "TRTP": "Xanomeline High Dose",
    "TRTA": "Xanomeline High Dose",
    "TRTSDT": "2014-01-11",
    "TRTEDT": "2014-07-10",
    "SAFFL": "Y",
    "ITTFL": "Y",
    "EFFFL": "Y",
    "PARAMCD": "NPTOT",
    "PARAM": "NPI-X Total (9) Score",
    "PARAMN": 1,
    "AVAL": 0,
    "BASE": 1,
    "CHG": -1,
    "AVISIT": "Week 4",
    "AVISITN": 4,
    "ADT": "2014-02-08",
    "ADY": 29,
    "ABLFL": null,
    "ANL01FL": "Y",
    "DTYPE": null
  },
  {
    "STUDYID": "CDISCPILOT01",
    "USUBJID": "01-701-1239",
    "SITEID": "701",
    "SITEGR1": "701",
    "TRT01P": "Xanomeline High Dose",
    "TRT01A": "Xanomeline High Dose",
    "TRT01PN": 2,
    "TRTP": "Xanomeline High Dose",
    "TRTA": "Xanomeline High Dose",
    "TRTSDT": "2014-01-11",
    "TRTEDT": "2014-07-10",
    "SAFFL": "Y",
    "ITTFL": "Y",
    "EFFFL": "Y",
    "PARAMCD": "NPTOT",
    "PARAM": "NPI-X Total (9) Score",
    "PARAMN": 1,
    "AVAL": 0,
    "BASE": 1,
    "CHG": -1,
    "AVISIT": "Week 8",
    "AVISITN": 8,
    "ADT": "2014-02-19",
    "ADY": 40,
    "ABLFL": null,
    "ANL01FL": "Y",
    "DTYPE": null
  },
  {
    "STUDYID": "CDISCPILOT01",
    "USUBJID": "01-701-1239",
    "SITEID": "701",
    "SITEGR1": "701",
    "TRT01P": "Xanomeline High Dose",
    "TRT01A": "Xanomeline High Dose",
    "TRT01PN": 2,
    "TRTP": "Xanomeline High Dose",
    "TRTA": "Xanomeline High Dose",
    "TRTSDT": "2014-01-11",
    "TRTEDT": "2014-07-10",
    "SAFFL": "Y",
    "ITTFL": "Y",
    "EFFFL": "Y",
    "PARAMCD": "NPTOT",
    "PARAM": "NPI-X Total (9) Score",
    "PARAMN": 1,
    "AVAL": 1,
    "BASE": 1,
    "CHG": 0,
    "AVISIT": "Week 12",
    "AVISITN": 12,
    "ADT": "2014-03-06",
    "ADY": 55,
    "ABLFL": null,
    "ANL01FL": "Y",
    "DTYPE": null
  },
  {
    "STUDYID": "CDISCPILOT01",
    "USUBJID": "01-701-1239",
    "SITEID": "701",
    "SITEGR1": "701",
    "TRT01P": "Xanomeline High Dose",
    "TRT01A": "Xanomeline High Dose",
    "TRT01PN": 2,
    "TRTP": "Xanomeline High Dose",
    "TRTA": "Xanomeline High Dose",
    "TRTSDT": "2014-01-11",
    "TRTEDT": "2014-07-10",
    "SAFFL": "Y",
    "ITTFL": "Y",
    "EFFFL": "Y",
    "PARAMCD": "NPTOT",
    "PARAM": "NPI-X Total (9) Score",
    "PARAMN": 1,
    "AVAL": 0,
    "BASE": 1,
    "CHG": -1,
    "AVISIT": "Week 16",
    "AVISITN": 16,
    "ADT": "2014-04-02",
    "ADY": 82,
    "ABLFL": null,
    "ANL01FL": "Y",
    "DTYPE": null
  },
  {
    "STUDYID": "CDISCPILOT01",
    "USUBJID": "01-701-1239",
    "SITEID": "701",
    "SITEGR1": "701",
    "TRT01P": "Xanomeline High Dose",
    "TRT01A": "Xanomeline High Dose",
    "TRT01PN": 2,
    "TRTP": "Xanomeline High Dose",
    "TRTA": "Xanomeline High Dose",
    "TRTSDT": "2014-01-11",
    "TRTEDT": "2014-07-10",
    "SAFFL": "Y",
    "ITTFL": "Y",
    "EFFFL": "Y",
    "PARAMCD": "NPTOT",
    "PARAM": "NPI-X Total (9) Score",
    "PARAMN": 1,
    "AVAL": 0,
    "BASE": 1,
    "CHG": -1,
    "AVISIT": "Week 20",
    "AVISITN": 20,
    "ADT": "2014-05-02",
    "ADY": 112,
    "ABLFL": null,
    "ANL01FL": "Y",
    "DTYPE": null
  },
  {
    "STUDYID": "CDISCPILOT01",
    "USUBJID": "01-701-1239",
    "SITEID": "701",
    "SITEGR1": "701",
    "TRT01P": "Xanomeline High Dose",
    "TRT01A": "Xanomeline High Dose",
    "TRT01PN": 2,
    "TRTP": "Xanomeline High Dose",
    "TRTA": "Xanomeline High Dose",
    "TRTSDT": "2014-01-11",
    "TRTEDT": "2014-07-10",
    "SAFFL": "Y",
    "ITTFL": "Y",
    "EFFFL": "Y",
    "PARAMCD": "NPTOT",
    "PARAM": "NPI-X Total (9) Score",
    "PARAMN": 1,
    "AVAL": 0,
    "BASE": 1,
    "CHG": -1,
    "AVISIT": "Week 24",
    "AVISITN": 24,
    "ADT": "2014-05-28",
    "ADY": 138,
    "ABLFL": null,
    "ANL01FL": "Y",
    "DTYPE": null
  },
  {
    "STUDYID": "CDISCPILOT01",
    "USUBJID": "01-701-1275",
    "SITEID": "701",
    "SITEGR1": "701",
    "TRT01P": "Xanomeline High Dose",
    "TRT01A": "Xanomeline High Dose",
    "TRT01PN": 2,
    "TRTP": "Xanomeline High Dose",
    "TRTA": "Xanomeline High Dose",
    "TRTSDT": "2014-02-07",
    "TRTEDT": "2014-05-31",
    "SAFFL": "Y",
    "ITTFL": "Y",
    "EFFFL": "Y",
    "PARAMCD": "NPTOT",
    "PARAM": "NPI-X Total (9) Score",
    "PARAMN": 1,
    "AVAL": 4,
    "BASE": 4,
    "CHG": null,
    "AVISIT": "Baseline",
    "AVISITN": 0,
    "ADT": "2014-02-07",
    "ADY": 1,
    "ABLFL": "Y",
    "ANL01FL": "Y",
    "DTYPE": null
  },
  {
    "STUDYID": "CDISCPILOT01",
    "USUBJID": "01-701-1275",
    "SITEID": "701",
    "SITEGR1": "701",
    "TRT01P": "Xanomeline High Dose",
    "TRT01A": "Xanomeline High Dose",
    "TRT01PN": 2,
    "TRTP": "Xanomeline High Dose",
    "TRTA": "Xanomeline High Dose",
    "TRTSDT": "2014-02-07",
    "TRTEDT": "2014-05-31",
    "SAFFL": "Y",
    "ITTFL": "Y",
    "EFFFL": "Y",
    "PARAMCD": "NPTOT",
    "PARAM": "NPI-X Total (9) Score",
    "PARAMN": 1,
    "AVAL": 6,
    "BASE": 4,
    "CHG": 2,
    "AVISIT": "Week 4",
    "AVISITN": 4,
    "ADT": "2014-03-07",
    "ADY": 29,
    "ABLFL": null,
    "ANL01FL": "Y",
    "DTYPE": null
  },
  {
    "STUDYID": "CDISCPILOT01",
    "USUBJID": "01-701-1275",
    "SITEID": "701",
    "SITEGR1": "701",
    "TRT01P": "Xanomeline High Dose",
    "TRT01A": "Xanomeline High Dose",
    "TRT01PN": 2,
    "TRTP": "Xanomeline High Dose",
    "TRTA": "Xanomeline High Dose",
    "TRTSDT": "2014-02-07",
    "TRTEDT": "2014-05-31",
    "SAFFL": "Y",
    "ITTFL": "Y",
    "EFFFL": "Y",
    "PARAMCD": "NPTOT",
    "PARAM": "NPI-X Total (9) Score",
    "PARAMN": 1,
    "AVAL": 6,
    "BASE": 4,
    "CHG": 2,
    "AVISIT": "Week 8",
    "AVISITN": 8,
    "ADT": "2014-03-22",
    "ADY": 44,
    "ABLFL": null,
    "ANL01FL": "Y",
    "DTYPE": null
  },
  {
    "STUDYID": "CDISCPILOT01",
    "USUBJID": "01-701-1275",
    "SITEID": "701",
    "SITEGR1": "701",
    "TRT01P": "Xanomeline High Dose",
    "TRT01A": "Xanomeline High Dose",
    "TRT01PN": 2,
    "TRTP": "Xanomeline High Dose",
    "TRTA": "Xanomeline High Dose",
    "TRTSDT": "2014-02-07",
    "TRTEDT": "2014-05-31",
    "SAFFL": "Y",
    "ITTFL": "Y",
    "EFFFL": "Y",
    "PARAMCD": "NPTOT",
    "PARAM": "NPI-X Total (9) Score",
    "PARAMN": 1,
    "AVAL": 1,
    "BASE": 4,
    "CHG": -3,
    "AVISIT": "Week 12",
    "AVISITN": 12,
    "ADT": "2014-04-05",
    "ADY": 58,
    "ABLFL": null,
    "ANL01FL": "Y",
    "DTYPE": null
  },
  {
    "STUDYID": "CDISCPILOT01",
    "USUBJID": "01-701-1275",
    "SITEID": "701",
    "SITEGR1": "701",
    "TRT01P": "Xanomeline High Dose",
    "TRT01A": "Xanomeline High Dose",
    "TRT01PN": 2,
    "TRTP": "Xanomeline High Dose",
    "TRTA": "Xanomeline High Dose",
    "TRTSDT": "2014-02-07",
    "TRTEDT": "2014-05-31",
    "SAFFL": "Y",
    "ITTFL": "Y",
    "EFFFL": "Y",
    "PARAMCD": "NPTOT",
    "PARAM": "NPI-X Total (9) Score",
    "PARAMN": 1,
    "AVAL": 1,
    "BASE": 4,
    "CHG": -3,
    "AVISIT": "Week 16",
    "AVISITN": 16,
    "ADT": "2014-05-03",
    "ADY": 86,
    "ABLFL": null,
    "ANL01FL": "Y",
    "DTYPE": null
  },
  {
    "STUDYID": "CDISCPILOT01",
    "USUBJID": "01-701-1275",
    "SITEID": "701",
    "SITEGR1": "701",
    "TRT01P": "Xanomeline High Dose",
    "TRT01A": "Xanomeline High Dose",
    "TRT01PN": 2,
    "TRTP": "Xanomeline High Dose",
    "TRTA": "Xanomeline High Dose",
    "TRTSDT": "2014-02-07",
    "TRTEDT": "2014-05-31",
    "SAFFL": "Y",
    "ITTFL": "Y",
    "EFFFL": "Y",
    "PARAMCD": "NPTOT",
    "PARAM": "NPI-X Total (9) Score",
    "PARAMN": 1,
    "AVAL": 4,
    "BASE": 4,
    "CHG": 0,
    "AVISIT": "Week 20",
    "AVISITN": 20,
    "ADT": "2014-06-14",
    "ADY": 128,
    "ABLFL": null,
    "ANL01FL": "Y",
    "DTYPE": null
  },
  {
    "STUDYID": "CDISCPILOT01",
    "USUBJID": "01-701-1287",
    "SITEID": "701",
    "SITEGR1": "701",
    "TRT01P": "Xanomeline High Dose",
    "TRT01A": "Xanomeline High Dose",
    "TRT01PN": 2,
    "TRTP": "Xanomeline High Dose",
    "TRTA": "Xanomeline High Dose",
    "TRTSDT": "2014-01-25",
    "TRTEDT": "2014-07-26",
    "SAFFL": "Y",
    "ITTFL": "Y",
    "EFFFL": "Y",
    "PARAMCD": "NPTOT",
    "PARAM": "NPI-X Total (9) Score",
    "PARAMN": 1,
    "AVAL": 1,
    "BASE": 1,
    "CHG": null,
    "AVISIT": "Baseline",
    "AVISITN": 0,
    "ADT": "2014-01-25",
    "ADY": 1,
    "ABLFL": "Y",
    "ANL01FL": "Y",
    "DTYPE": null
  },
  {
    "STUDYID": "CDISCPILOT01",
    "USUBJID": "01-701-1287",
    "SITEID": "701",
    "SITEGR1": "701",
    "TRT01P": "Xanomeline High Dose",
    "TRT01A": "Xanomeline High Dose",
    "TRT01PN": 2,
    "TRTP": "Xanomeline High Dose",
    "TRTA": "Xanomeline High Dose",
    "TRTSDT": "2014-01-25",
    "TRTEDT": "2014-07-26",
    "SAFFL": "Y",
    "ITTFL": "Y",
    "EFFFL": "Y",
    "PARAMCD": "NPTOT",
    "PARAM": "NPI-X Total (9) Score",
    "PARAMN": 1,
    "AVAL": 0,
    "BASE": 1,
    "CHG": -1,
    "AVISIT": "Week 4",
    "AVISITN": 4,
    "ADT": "2014-02-20",
    "ADY": 27,
    "ABLFL": null,
    "ANL01FL": "Y",
    "DTYPE": null
  },
  {
    "STUDYID": "CDISCPILOT01",
    "USUBJID": "01-701-1287",
    "SITEID": "701",
    "SITEGR1": "701",
    "TRT01P": "Xanomeline High Dose",
    "TRT01A": "Xanomeline High Dose",
    "TRT01PN": 2,
    "TRTP": "Xanomeline High Dose",
    "TRTA": "Xanomeline High Dose",
    "TRTSDT": "2014-01-25",
    "TRTEDT": "2014-07-26",
    "SAFFL": "Y",
    "ITTFL": "Y",
    "EFFFL": "Y",
    "PARAMCD": "NPTOT",
    "PARAM": "NPI-X Total (9) Score",
    "PARAMN": 1,
    "AVAL": 0,
    "BASE": 1,
    "CHG": -1,
    "AVISIT": "Week 8",
    "AVISITN": 8,
    "ADT": "2014-03-06",
    "ADY": 41,
    "ABLFL": null,
    "ANL01FL": "Y",
    "DTYPE": null
  },
  {
    "STUDYID": "CDISCPILOT01",
    "USUBJID": "01-701-1287",
    "SITEID": "701",
    "SITEGR1": "701",
    "TRT01P": "Xanomeline High Dose",
    "TRT01A": "Xanomeline High Dose",
    "TRT01PN": 2,
    "TRTP": "Xanomeline High Dose",
    "TRTA": "Xanomeline High Dose",
    "TRTSDT": "2014-01-25",
    "TRTEDT": "2014-07-26",
    "SAFFL": "Y",
    "ITTFL": "Y",
    "EFFFL": "Y",
    "PARAMCD": "NPTOT",
    "PARAM": "NPI-X Total (9) Score",
    "PARAMN": 1,
    "AVAL": 0,
    "BASE": 1,
    "CHG": -1,
    "AVISIT": "Week 12",
    "AVISITN": 12,
    "ADT": "2014-03-21",
    "ADY": 56,
    "ABLFL": null,
    "ANL01FL": "Y",
    "DTYPE": null
  },
  {
    "STUDYID": "CDISCPILOT01",
    "USUBJID": "01-701-1287",
    "SITEID": "701",
    "SITEGR1": "701",
    "TRT01P": "Xanomeline High Dose",
    "TRT01A": "Xanomeline High Dose",
    "TRT01PN": 2,
    "TRTP": "Xanomeline High Dose",
    "TRTA": "Xanomeline High Dose",
    "TRTSDT": "2014-01-25",
    "TRTEDT": "2014-07-26",
    "SAFFL": "Y",
    "ITTFL": "Y",
    "EFFFL": "Y",
    "PARAMCD": "NPTOT",
    "PARAM": "NPI-X Total (9) Score",
    "PARAMN": 1,
    "AVAL": 0,
    "BASE": 1,
    "CHG": -1,
    "AVISIT": "Week 16",
    "AVISITN": 16,
    "ADT": "2014-04-17",
    "ADY": 83,
    "ABLFL": null,
    "ANL01FL": "Y",
    "DTYPE": null
  },
  {
    "STUDYID": "CDISCPILOT01",
    "USUBJID": "01-701-1287",
    "SITEID": "701",
    "SITEGR1": "701",
    "TRT01P": "Xanomeline High Dose",
    "TRT01A": "Xanomeline High Dose",
    "TRT01PN": 2,
    "TRTP": "Xanomeline High Dose",
    "TRTA": "Xanomeline High Dose",
    "TRTSDT": "2014-01-25",
    "TRTEDT": "2014-07-26",
    "SAFFL": "Y",
    "ITTFL": "Y",
    "EFFFL": "Y",
    "PARAMCD": "NPTOT",
    "PARAM": "NPI-X Total (9) Score",
    "PARAMN": 1,
    "AVAL": 0,
    "BASE": 1,
    "CHG": -1,
    "AVISIT": "Week 20",
    "AVISITN": 20,
    "ADT": "2014-05-15",
    "ADY": 111,
    "ABLFL": null,
    "ANL01FL": "Y",
    "DTYPE": null
  },
  {
    "STUDYID": "CDISCPILOT01",
    "USUBJID": "01-701-1287",
    "SITEID": "701",
    "SITEGR1": "701",
    "TRT01P": "Xanomeline High Dose",
    "TRT01A": "Xanomeline High Dose",
    "TRT01PN": 2,
    "TRTP": "Xanomeline High Dose",
    "TRTA": "Xanomeline High Dose",
    "TRTSDT": "2014-01-25",
    "TRTEDT": "2014-07-26",
    "SAFFL": "Y",
    "ITTFL": "Y",
    "EFFFL": "Y",
    "PARAMCD": "NPTOT",
    "PARAM": "NPI-X Total (9) Score",
    "PARAMN": 1,
    "AVAL": 0,
    "BASE": 1,
    "CHG": -1,
    "AVISIT": "Week 24",
    "AVISITN": 24,
    "ADT": "2014-06-12",
    "ADY": 139,
    "ABLFL": null,
    "ANL01FL": "Y",
    "DTYPE": null
  },
  {
    "STUDYID": "CDISCPILOT01",
    "USUBJID": "01-701-1294",
    "SITEID": "701",
    "SITEGR1": "701",
    "TRT01P": "Xanomeline Low Dose",
    "TRT01A": "Xanomeline Low Dose",
    "TRT01PN": 1,
    "TRTP": "Xanomeline Low Dose",
    "TRTA": "Xanomeline Low Dose",
    "TRTSDT": "2013-03-24",
    "TRTEDT": "2013-06-14",
    "SAFFL": "Y",
    "ITTFL": "Y",
    "EFFFL": "Y",
    "PARAMCD": "NPTOT",
    "PARAM": "NPI-X Total (9) Score",
    "PARAMN": 1,
    "AVAL": 3,
    "BASE": 3,
    "CHG": null,
    "AVISIT": "Baseline",
    "AVISITN": 0,
    "ADT": "2013-03-24",
    "ADY": 1,
    "ABLFL": "Y",
    "ANL01FL": "Y",
    "DTYPE": null
  },
  {
    "STUDYID": "CDISCPILOT01",
    "USUBJID": "01-701-1294",
    "SITEID": "701",
    "SITEGR1": "701",
    "TRT01P": "Xanomeline Low Dose",
    "TRT01A": "Xanomeline Low Dose",
    "TRT01PN": 1,
    "TRTP": "Xanomeline Low Dose",
    "TRTA": "Xanomeline Low Dose",
    "TRTSDT": "2013-03-24",
    "TRTEDT": "2013-06-14",
    "SAFFL": "Y",
    "ITTFL": "Y",
    "EFFFL": "Y",
    "PARAMCD": "NPTOT",
    "PARAM": "NPI-X Total (9) Score",
    "PARAMN": 1,
    "AVAL": 0,
    "BASE": 3,
    "CHG": -3,
    "AVISIT": "Week 4",
    "AVISITN": 4,
    "ADT": "2013-04-24",
    "ADY": 32,
    "ABLFL": null,
    "ANL01FL": "Y",
    "DTYPE": null
  },
  {
    "STUDYID": "CDISCPILOT01",
    "USUBJID": "01-701-1294",
    "SITEID": "701",
    "SITEGR1": "701",
    "TRT01P": "Xanomeline Low Dose",
    "TRT01A": "Xanomeline Low Dose",
    "TRT01PN": 1,
    "TRTP": "Xanomeline Low Dose",
    "TRTA": "Xanomeline Low Dose",
    "TRTSDT": "2013-03-24",
    "TRTEDT": "2013-06-14",
    "SAFFL": "Y",
    "ITTFL": "Y",
    "EFFFL": "Y",
    "PARAMCD": "NPTOT",
    "PARAM": "NPI-X Total (9) Score",
    "PARAMN": 1,
    "AVAL": 12,
    "BASE": 3,
    "CHG": 9,
    "AVISIT": "Week 8",
    "AVISITN": 8,
    "ADT": "2013-05-08",
    "ADY": 46,
    "ABLFL": null,
    "ANL01FL": "Y",
    "DTYPE": null
  },
  {
    "STUDYID": "CDISCPILOT01",
    "USUBJID": "01-701-1294",
    "SITEID": "701",
    "SITEGR1": "701",
    "TRT01P": "Xanomeline Low Dose",
    "TRT01A": "Xanomeline Low Dose",
    "TRT01PN": 1,
    "TRTP": "Xanomeline Low Dose",
    "TRTA": "Xanomeline Low Dose",
    "TRTSDT": "2013-03-24",
    "TRTEDT": "2013-06-14",
    "SAFFL": "Y",
    "ITTFL": "Y",
    "EFFFL": "Y",
    "PARAMCD": "NPTOT",
    "PARAM": "NPI-X Total (9) Score",
    "PARAMN": 1,
    "AVAL": 0,
    "BASE": 3,
    "CHG": -3,
    "AVISIT": "Week 12",
    "AVISITN": 12,
    "ADT": "2013-05-22",
    "ADY": 60,
    "ABLFL": null,
    "ANL01FL": "Y",
    "DTYPE": null
  },
  {
    "STUDYID": "CDISCPILOT01",
    "USUBJID": "01-701-1294",
    "SITEID": "701",
    "SITEGR1": "701",
    "TRT01P": "Xanomeline Low Dose",
    "TRT01A": "Xanomeline Low Dose",
    "TRT01PN": 1,
    "TRTP": "Xanomeline Low Dose",
    "TRTA": "Xanomeline Low Dose",
    "TRTSDT": "2013-03-24",
    "TRTEDT": "2013-06-14",
    "SAFFL": "Y",
    "ITTFL": "Y",
    "EFFFL": "Y",
    "PARAMCD": "NPTOT",
    "PARAM": "NPI-X Total (9) Score",
    "PARAMN": 1,
    "AVAL": 1,
    "BASE": 3,
    "CHG": -2,
    "AVISIT": "Week 16",
    "AVISITN": 16,
    "ADT": "2013-06-14",
    "ADY": 83,
    "ABLFL": null,
    "ANL01FL": "Y",
    "DTYPE": null
  },
  {
    "STUDYID": "CDISCPILOT01",
    "USUBJID": "01-701-1302",
    "SITEID": "701",
    "SITEGR1": "701",
    "TRT01P": "Xanomeline High Dose",
    "TRT01A": "Xanomeline High Dose",
    "TRT01PN": 2,
    "TRTP": "Xanomeline High Dose",
    "TRTA": "Xanomeline High Dose",
    "TRTSDT": "2013-08-29",
    "TRTEDT": "2013-11-05",
    "SAFFL": "Y",
    "ITTFL": "Y",
    "EFFFL": "Y",
    "PARAMCD": "NPTOT",
    "PARAM": "NPI-X Total (9) Score",
    "PARAMN": 1,
    "AVAL": 0,
    "BASE": 0,
    "CHG": null,
    "AVISIT": "Baseline",
    "AVISITN": 0,
    "ADT": "2013-08-29",
    "ADY": 1,
    "ABLFL": "Y",
    "ANL01FL": "Y",
    "DTYPE": null
  },
  {
    "STUDYID": "CDISCPILOT01",
    "USUBJID": "01-701-1302",
    "SITEID": "701",
    "SITEGR1": "701",
    "TRT01P": "Xanomeline High Dose",
    "TRT01A": "Xanomeline High Dose",
    "TRT01PN": 2,
    "TRTP": "Xanomeline High Dose",
    "TRTA": "Xanomeline High Dose",
    "TRTSDT": "2013-08-29",
    "TRTEDT": "2013-11-05",
    "SAFFL": "Y",
    "ITTFL": "Y",
    "EFFFL": "Y",
    "PARAMCD": "NPTOT",
    "PARAM": "NPI-X Total (9) Score",
    "PARAMN": 1,
    "AVAL": 0,
    "BASE": 0,
    "CHG": 0,
    "AVISIT": "Week 4",
    "AVISITN": 4,
    "ADT": "2013-09-24",
    "ADY": 27,
    "ABLFL": null,
    "ANL01FL": "Y",
    "DTYPE": null
  },
  {
    "STUDYID": "CDISCPILOT01",
    "USUBJID": "01-701-1302",
    "SITEID": "701",
    "SITEGR1": "701",
    "TRT01P": "Xanomeline High Dose",
    "TRT01A": "Xanomeline High Dose",
    "TRT01PN": 2,
    "TRTP": "Xanomeline High Dose",
    "TRTA": "Xanomeline High Dose",
    "TRTSDT": "2013-08-29",
    "TRTEDT": "2013-11-05",
    "SAFFL": "Y",
    "ITTFL": "Y",
    "EFFFL": "Y",
    "PARAMCD": "NPTOT",
    "PARAM": "NPI-X Total (9) Score",
    "PARAMN": 1,
    "AVAL": 0,
    "BASE": 0,
    "CHG": 0,
    "AVISIT": "Week 8",
    "AVISITN": 8,
    "ADT": "2013-10-08",
    "ADY": 41,
    "ABLFL": null,
    "ANL01FL": "Y",
    "DTYPE": null
  },
  {
    "STUDYID": "CDISCPILOT01",
    "USUBJID": "01-701-1302",
    "SITEID": "701",
    "SITEGR1": "701",
    "TRT01P": "Xanomeline High Dose",
    "TRT01A": "Xanomeline High Dose",
    "TRT01PN": 2,
    "TRTP": "Xanomeline High Dose",
    "TRTA": "Xanomeline High Dose",
    "TRTSDT": "2013-08-29",
    "TRTEDT": "2013-11-05",
    "SAFFL": "Y",
    "ITTFL": "Y",
    "EFFFL": "Y",
    "PARAMCD": "NPTOT",
    "PARAM": "NPI-X Total (9) Score",
    "PARAMN": 1,
    "AVAL": 0,
    "BASE": 0,
    "CHG": 0,
    "AVISIT": "Week 12",
    "AVISITN": 12,
    "ADT": "2013-10-22",
    "ADY": 55,
    "ABLFL": null,
    "ANL01FL": "Y",
    "DTYPE": null
  },
  {
    "STUDYID": "CDISCPILOT01",
    "USUBJID": "01-701-1302",
    "SITEID": "701",
    "SITEGR1": "701",
    "TRT01P": "Xanomeline High Dose",
    "TRT01A": "Xanomeline High Dose",
    "TRT01PN": 2,
    "TRTP": "Xanomeline High Dose",
    "TRTA": "Xanomeline High Dose",
    "TRTSDT": "2013-08-29",
    "TRTEDT": "2013-11-05",
    "SAFFL": "Y",
    "ITTFL": "Y",
    "EFFFL": "Y",
    "PARAMCD": "NPTOT",
    "PARAM": "NPI-X Total (9) Score",
    "PARAMN": 1,
    "AVAL": 0,
    "BASE": 0,
    "CHG": 0,
    "AVISIT": "Week 16",
    "AVISITN": 16,
    "ADT": "2013-11-05",
    "ADY": 69,
    "ABLFL": null,
    "ANL01FL": "Y",
    "DTYPE": null
  },
  {
    "STUDYID": "CDISCPILOT01",
    "USUBJID": "01-701-1317",
    "SITEID": "701",
    "SITEGR1": "701",
    "TRT01P": "Xanomeline Low Dose",
    "TRT01A": "Xanomeline Low Dose",
    "TRT01PN": 1,
    "TRTP": "Xanomeline Low Dose",
    "TRTA": "Xanomeline Low Dose",
    "TRTSDT": "2014-05-22",
    "TRTEDT": "2014-11-20",
    "SAFFL": "Y",
    "ITTFL": "Y",
    "EFFFL": "Y",
    "PARAMCD": "NPTOT",
    "PARAM": "NPI-X Total (9) Score",
    "PARAMN": 1,
    "AVAL": 9,
    "BASE": 9,
    "CHG": null,
    "AVISIT": "Baseline",
    "AVISITN": 0,
    "ADT": "2014-05-22",
    "ADY": 1,
    "ABLFL": "Y",
    "ANL01FL": "Y",
    "DTYPE": null
  },
  {
    "STUDYID": "CDISCPILOT01",
    "USUBJID": "01-701-1317",
    "SITEID": "701",
    "SITEGR1": "701",
    "TRT01P": "Xanomeline Low Dose",
    "TRT01A": "Xanomeline Low Dose",
    "TRT01PN": 1,
    "TRTP": "Xanomeline Low Dose",
    "TRTA": "Xanomeline Low Dose",
    "TRTSDT": "2014-05-22",
    "TRTEDT": "2014-11-20",
    "SAFFL": "Y",
    "ITTFL": "Y",
    "EFFFL": "Y",
    "PARAMCD": "NPTOT",
    "PARAM": "NPI-X Total (9) Score",
    "PARAMN": 1,
    "AVAL": 6,
    "BASE": 9,
    "CHG": -3,
    "AVISIT": "Week 4",
    "AVISITN": 4,
    "ADT": "2014-06-19",
    "ADY": 29,
    "ABLFL": null,
    "ANL01FL": "Y",
    "DTYPE": null
  },
  {
    "STUDYID": "CDISCPILOT01",
    "USUBJID": "01-701-1317",
    "SITEID": "701",
    "SITEGR1": "701",
    "TRT01P": "Xanomeline Low Dose",
    "TRT01A": "Xanomeline Low Dose",
    "TRT01PN": 1,
    "TRTP": "Xanomeline Low Dose",
    "TRTA": "Xanomeline Low Dose",
    "TRTSDT": "2014-05-22",
    "TRTEDT": "2014-11-20",
    "SAFFL": "Y",
    "ITTFL": "Y",
    "EFFFL": "Y",
    "PARAMCD": "NPTOT",
    "PARAM": "NPI-X Total (9) Score",
    "PARAMN": 1,
    "AVAL": 3,
    "BASE": 9,
    "CHG": -6,
    "AVISIT": "Week 8",
    "AVISITN": 8,
    "ADT": "2014-07-03",
    "ADY": 43,
    "ABLFL": null,
    "ANL01FL": "Y",
    "DTYPE": null
  },
  {
    "STUDYID": "CDISCPILOT01",
    "USUBJID": "01-701-1317",
    "SITEID": "701",
    "SITEGR1": "701",
    "TRT01P": "Xanomeline Low Dose",
    "TRT01A": "Xanomeline Low Dose",
    "TRT01PN": 1,
    "TRTP": "Xanomeline Low Dose",
    "TRTA": "Xanomeline Low Dose",
    "TRTSDT": "2014-05-22",
    "TRTEDT": "2014-11-20",
    "SAFFL": "Y",
    "ITTFL": "Y",
    "EFFFL": "Y",
    "PARAMCD": "NPTOT",
    "PARAM": "NPI-X Total (9) Score",
    "PARAMN": 1,
    "AVAL": 13,
    "BASE": 9,
    "CHG": 4,
    "AVISIT": "Week 12",
    "AVISITN": 12,
    "ADT": "2014-07-22",
    "ADY": 62,
    "ABLFL": null,
    "ANL01FL": "Y",
    "DTYPE": null
  },
  {
    "STUDYID": "CDISCPILOT01",
    "USUBJID": "01-701-1317",
    "SITEID": "701",
    "SITEGR1": "701",
    "TRT01P": "Xanomeline Low Dose",
    "TRT01A": "Xanomeline Low Dose",
    "TRT01PN": 1,
    "TRTP": "Xanomeline Low Dose",
    "TRTA": "Xanomeline Low Dose",
    "TRTSDT": "2014-05-22",
    "TRTEDT": "2014-11-20",
    "SAFFL": "Y",
    "ITTFL": "Y",
    "EFFFL": "Y",
    "PARAMCD": "NPTOT",
    "PARAM": "NPI-X Total (9) Score",
    "PARAMN": 1,
    "AVAL": 7,
    "BASE": 9,
    "CHG": -2,
    "AVISIT": "Week 16",
    "AVISITN": 16,
    "ADT": "2014-08-15",
    "ADY": 86,
    "ABLFL": null,
    "ANL01FL": "Y",
    "DTYPE": null
  },
  {
    "STUDYID": "CDISCPILOT01",
    "USUBJID": "01-701-1317",
    "SITEID": "701",
    "SITEGR1": "701",
    "TRT01P": "Xanomeline Low Dose",
    "TRT01A": "Xanomeline Low Dose",
    "TRT01PN": 1,
    "TRTP": "Xanomeline Low Dose",
    "TRTA": "Xanomeline Low Dose",
    "TRTSDT": "2014-05-22",
    "TRTEDT": "2014-11-20",
    "SAFFL": "Y",
    "ITTFL": "Y",
    "EFFFL": "Y",
    "PARAMCD": "NPTOT",
    "PARAM": "NPI-X Total (9) Score",
    "PARAMN": 1,
    "AVAL": 6,
    "BASE": 9,
    "CHG": -3,
    "AVISIT": "Week 20",
    "AVISITN": 20,
    "ADT": "2014-09-11",
    "ADY": 113,
    "ABLFL": null,
    "ANL01FL": "Y",
    "DTYPE": null
  },
  {
    "STUDYID": "CDISCPILOT01",
    "USUBJID": "01-701-1317",
    "SITEID": "701",
    "SITEGR1": "701",
    "TRT01P": "Xanomeline Low Dose",
    "TRT01A": "Xanomeline Low Dose",
    "TRT01PN": 1,
    "TRTP": "Xanomeline Low Dose",
    "TRTA": "Xanomeline Low Dose",
    "TRTSDT": "2014-05-22",
    "TRTEDT": "2014-11-20",
    "SAFFL": "Y",
    "ITTFL": "Y",
    "EFFFL": "Y",
    "PARAMCD": "NPTOT",
    "PARAM": "NPI-X Total (9) Score",
    "PARAMN": 1,
    "AVAL": 6,
    "BASE": 9,
    "CHG": -3,
    "AVISIT": "Week 24",
    "AVISITN": 24,
    "ADT": "2014-10-09",
    "ADY": 141,
    "ABLFL": null,
    "ANL01FL": "Y",
    "DTYPE": null
  },
  {
    "STUDYID": "CDISCPILOT01",
    "USUBJID": "01-701-1324",
    "SITEID": "701",
    "SITEGR1": "701",
    "TRT01P": "Xanomeline Low Dose",
    "TRT01A": "Xanomeline Low Dose",
    "TRT01PN": 1,
    "TRTP": "Xanomeline Low Dose",
    "TRTA": "Xanomeline Low Dose",
    "TRTSDT": "2012-10-02",
    "TRTEDT": "2013-04-02",
    "SAFFL": "Y",
    "ITTFL": "Y",
    "EFFFL": "Y",
    "PARAMCD": "NPTOT",
    "PARAM": "NPI-X Total (9) Score",
    "PARAMN": 1,
    "AVAL": 1,
    "BASE": 1,
    "CHG": null,
    "AVISIT": "Baseline",
    "AVISITN": 0,
    "ADT": "2012-10-02",
    "ADY": 1,
    "ABLFL": "Y",
    "ANL01FL": "Y",
    "DTYPE": null
  },
  {
    "STUDYID": "CDISCPILOT01",
    "USUBJID": "01-701-1324",
    "SITEID": "701",
    "SITEGR1": "701",
    "TRT01P": "Xanomeline Low Dose",
    "TRT01A": "Xanomeline Low Dose",
    "TRT01PN": 1,
    "TRTP": "Xanomeline Low Dose",
    "TRTA": "Xanomeline Low Dose",
    "TRTSDT": "2012-10-02",
    "TRTEDT": "2013-04-02",
    "SAFFL": "Y",
    "ITTFL": "Y",
    "EFFFL": "Y",
    "PARAMCD": "NPTOT",
    "PARAM": "NPI-X Total (9) Score",
    "PARAMN": 1,
    "AVAL": 8,
    "BASE": 1,
    "CHG": 7,
    "AVISIT": "Week 4",
    "AVISITN": 4,
    "ADT": "2012-10-30",
    "ADY": 29,
    "ABLFL": null,
    "ANL01FL": "Y",
    "DTYPE": null
  },
  {
    "STUDYID": "CDISCPILOT01",
    "USUBJID": "01-701-1324",
    "SITEID": "701",
    "SITEGR1": "701",
    "TRT01P": "Xanomeline Low Dose",
    "TRT01A": "Xanomeline Low Dose",
    "TRT01PN": 1,
    "TRTP": "Xanomeline Low Dose",
    "TRTA": "Xanomeline Low Dose",
    "TRTSDT": "2012-10-02",
    "TRTEDT": "2013-04-02",
    "SAFFL": "Y",
    "ITTFL": "Y",
    "EFFFL": "Y",
    "PARAMCD": "NPTOT",
    "PARAM": "NPI-X Total (9) Score",
    "PARAMN": 1,
    "AVAL": 0,
    "BASE": 1,
    "CHG": -1,
    "AVISIT": "Week 8",
    "AVISITN": 8,
    "ADT": "2012-11-13",
    "ADY": 43,
    "ABLFL": null,
    "ANL01FL": "Y",
    "DTYPE": null
  },
  {
    "STUDYID": "CDISCPILOT01",
    "USUBJID": "01-701-1324",
    "SITEID": "701",
    "SITEGR1": "701",
    "TRT01P": "Xanomeline Low Dose",
    "TRT01A": "Xanomeline Low Dose",
    "TRT01PN": 1,
    "TRTP": "Xanomeline Low Dose",
    "TRTA": "Xanomeline Low Dose",
    "TRTSDT": "2012-10-02",
    "TRTEDT": "2013-04-02",
    "SAFFL": "Y",
    "ITTFL": "Y",
    "EFFFL": "Y",
    "PARAMCD": "NPTOT",
    "PARAM": "NPI-X Total (9) Score",
    "PARAMN": 1,
    "AVAL": 2,
    "BASE": 1,
    "CHG": 1,
    "AVISIT": "Week 12",
    "AVISITN": 12,
    "ADT": "2012-11-25",
    "ADY": 55,
    "ABLFL": null,
    "ANL01FL": "Y",
    "DTYPE": null
  },
  {
    "STUDYID": "CDISCPILOT01",
    "USUBJID": "01-701-1324",
    "SITEID": "701",
    "SITEGR1": "701",
    "TRT01P": "Xanomeline Low Dose",
    "TRT01A": "Xanomeline Low Dose",
    "TRT01PN": 1,
    "TRTP": "Xanomeline Low Dose",
    "TRTA": "Xanomeline Low Dose",
    "TRTSDT": "2012-10-02",
    "TRTEDT": "2013-04-02",
    "SAFFL": "Y",
    "ITTFL": "Y",
    "EFFFL": "Y",
    "PARAMCD": "NPTOT",
    "PARAM": "NPI-X Total (9) Score",
    "PARAMN": 1,
    "AVAL": 6,
    "BASE": 1,
    "CHG": 5,
    "AVISIT": "Week 16",
    "AVISITN": 16,
    "ADT": "2012-12-25",
    "ADY": 85,
    "ABLFL": null,
    "ANL01FL": "Y",
    "DTYPE": null
  },
  {
    "STUDYID": "CDISCPILOT01",
    "USUBJID": "01-701-1324",
    "SITEID": "701",
    "SITEGR1": "701",
    "TRT01P": "Xanomeline Low Dose",
    "TRT01A": "Xanomeline Low Dose",
    "TRT01PN": 1,
    "TRTP": "Xanomeline Low Dose",
    "TRTA": "Xanomeline Low Dose",
    "TRTSDT": "2012-10-02",
    "TRTEDT": "2013-04-02",
    "SAFFL": "Y",
    "ITTFL": "Y",
    "EFFFL": "Y",
    "PARAMCD": "NPTOT",
    "PARAM": "NPI-X Total (9) Score",
    "PARAMN": 1,
    "AVAL": 1,
    "BASE": 1,
    "CHG": 0,
    "AVISIT": "Week 20",
    "AVISITN": 20,
    "ADT": "2013-01-22",
    "ADY": 113,
    "ABLFL": null,
    "ANL01FL": "Y",
    "DTYPE": null
  },
  {
    "STUDYID": "CDISCPILOT01",
    "USUBJID": "01-701-1324",
    "SITEID": "701",
    "SITEGR1": "701",
    "TRT01P": "Xanomeline Low Dose",
    "TRT01A": "Xanomeline Low Dose",
    "TRT01PN": 1,
    "TRTP": "Xanomeline Low Dose",
    "TRTA": "Xanomeline Low Dose",
    "TRTSDT": "2012-10-02",
    "TRTEDT": "2013-04-02",
    "SAFFL": "Y",
    "ITTFL": "Y",
    "EFFFL": "Y",
    "PARAMCD": "NPTOT",
    "PARAM": "NPI-X Total (9) Score",
    "PARAMN": 1,
    "AVAL": 7,
    "BASE": 1,
    "CHG": 6,
    "AVISIT": "Week 24",
    "AVISITN": 24,
    "ADT": "2013-02-19",
    "ADY": 141,
    "ABLFL": null,
    "ANL01FL": "Y",
    "DTYPE": null
  },
  {
    "STUDYID": "CDISCPILOT01",
    "USUBJID": "01-701-1341",
    "SITEID": "701",
    "SITEGR1": "701",
    "TRT01P": "Xanomeline Low Dose",
    "TRT01A": "Xanomeline Low Dose",
    "TRT01PN": 1,
    "TRTP": "Xanomeline Low Dose",
    "TRTA": "Xanomeline Low Dose",
    "TRTSDT": "2013-01-05",
    "TRTEDT": "2013-01-26",
    "SAFFL": "Y",
    "ITTFL": "Y",
    "EFFFL": "Y",
    "PARAMCD": "NPTOT",
    "PARAM": "NPI-X Total (9) Score",
    "PARAMN": 1,
    "AVAL": 1,
    "BASE": 1,
    "CHG": null,
    "AVISIT": "Baseline",
    "AVISITN": 0,
    "ADT": "2013-01-05",
    "ADY": 1,
    "ABLFL": "Y",
    "ANL01FL": "Y",
    "DTYPE": null
  },
  {
    "STUDYID": "CDISCPILOT01",
    "USUBJID": "01-701-1341",
    "SITEID": "701",
    "SITEGR1": "701",
    "TRT01P": "Xanomeline Low Dose",
    "TRT01A": "Xanomeline Low Dose",
    "TRT01PN": 1,
    "TRTP": "Xanomeline Low Dose",
    "TRTA": "Xanomeline Low Dose",
    "TRTSDT": "2013-01-05",
    "TRTEDT": "2013-01-26",
    "SAFFL": "Y",
    "ITTFL": "Y",
    "EFFFL": "Y",
    "PARAMCD": "NPTOT",
    "PARAM": "NPI-X Total (9) Score",
    "PARAMN": 1,
    "AVAL": 1,
    "BASE": 1,
    "CHG": 0,
    "AVISIT": "Week 4",
    "AVISITN": 4,
    "ADT": "2013-02-07",
    "ADY": 34,
    "ABLFL": null,
    "ANL01FL": "Y",
    "DTYPE": null
  },
  {
    "STUDYID": "CDISCPILOT01",
    "USUBJID": "01-701-1345",
    "SITEID": "701",
    "SITEGR1": "701",
    "TRT01P": "Placebo",
    "TRT01A": "Placebo",
    "TRT01PN": 0,
    "TRTP": "Placebo",
    "TRTA": "Placebo",
    "TRTSDT": "2013-10-08",
    "TRTEDT": "2014-03-18",
    "SAFFL": "Y",
    "ITTFL": "Y",
    "EFFFL": "Y",
    "PARAMCD": "NPTOT",
    "PARAM": "NPI-X Total (9) Score",
    "PARAMN": 1,
    "AVAL": 0,
    "BASE": 0,
    "CHG": null,
    "AVISIT": "Baseline",
    "AVISITN": 0,
    "ADT": "2013-10-08",
    "ADY": 1,
    "ABLFL": "Y",
    "ANL01FL": "Y",
    "DTYPE": null
  },
  {
    "STUDYID": "CDISCPILOT01",
    "USUBJID": "01-701-1345",
    "SITEID": "701",
    "SITEGR1": "701",
    "TRT01P": "Placebo",
    "TRT01A": "Placebo",
    "TRT01PN": 0,
    "TRTP": "Placebo",
    "TRTA": "Placebo",
    "TRTSDT": "2013-10-08",
    "TRTEDT": "2014-03-18",
    "SAFFL": "Y",
    "ITTFL": "Y",
    "EFFFL": "Y",
    "PARAMCD": "NPTOT",
    "PARAM": "NPI-X Total (9) Score",
    "PARAMN": 1,
    "AVAL": 0,
    "BASE": 0,
    "CHG": 0,
    "AVISIT": "Week 4",
    "AVISITN": 4,
    "ADT": "2013-11-08",
    "ADY": 32,
    "ABLFL": null,
    "ANL01FL": "Y",
    "DTYPE": null
  },
  {
    "STUDYID": "CDISCPILOT01",
    "USUBJID": "01-701-1345",
    "SITEID": "701",
    "SITEGR1": "701",
    "TRT01P": "Placebo",
    "TRT01A": "Placebo",
    "TRT01PN": 0,
    "TRTP": "Placebo",
    "TRTA": "Placebo",
    "TRTSDT": "2013-10-08",
    "TRTEDT": "2014-03-18",
    "SAFFL": "Y",
    "ITTFL": "Y",
    "EFFFL": "Y",
    "PARAMCD": "NPTOT",
    "PARAM": "NPI-X Total (9) Score",
    "PARAMN": 1,
    "AVAL": 0,
    "BASE": 0,
    "CHG": 0,
    "AVISIT": "Week 8",
    "AVISITN": 8,
    "ADT": "2013-11-19",
    "ADY": 43,
    "ABLFL": null,
    "ANL01FL": "Y",
    "DTYPE": null
  },
  {
    "STUDYID": "CDISCPILOT01",
    "USUBJID": "01-701-1345",
    "SITEID": "701",
    "SITEGR1": "701",
    "TRT01P": "Placebo",
    "TRT01A": "Placebo",
    "TRT01PN": 0,
    "TRTP": "Placebo",
    "TRTA": "Placebo",
    "TRTSDT": "2013-10-08",
    "TRTEDT": "2014-03-18",
    "SAFFL": "Y",
    "ITTFL": "Y",
    "EFFFL": "Y",
    "PARAMCD": "NPTOT",
    "PARAM": "NPI-X Total (9) Score",
    "PARAMN": 1,
    "AVAL": 0,
    "BASE": 0,
    "CHG": 0,
    "AVISIT": "Week 12",
    "AVISITN": 12,
    "ADT": "2013-12-03",
    "ADY": 57,
    "ABLFL": null,
    "ANL01FL": "Y",
    "DTYPE": null
  },
  {
    "STUDYID": "CDISCPILOT01",
    "USUBJID": "01-701-1345",
    "SITEID": "701",
    "SITEGR1": "701",
    "TRT01P": "Placebo",
    "TRT01A": "Placebo",
    "TRT01PN": 0,
    "TRTP": "Placebo",
    "TRTA": "Placebo",
    "TRTSDT": "2013-10-08",
    "TRTEDT": "2014-03-18",
    "SAFFL": "Y",
    "ITTFL": "Y",
    "EFFFL": "Y",
    "PARAMCD": "NPTOT",
    "PARAM": "NPI-X Total (9) Score",
    "PARAMN": 1,
    "AVAL": 0,
    "BASE": 0,
    "CHG": 0,
    "AVISIT": "Week 16",
    "AVISITN": 16,
    "ADT": "2013-12-31",
    "ADY": 85,
    "ABLFL": null,
    "ANL01FL": "Y",
    "DTYPE": null
  },
  {
    "STUDYID": "CDISCPILOT01",
    "USUBJID": "01-701-1345",
    "SITEID": "701",
    "SITEGR1": "701",
    "TRT01P": "Placebo",
    "TRT01A": "Placebo",
    "TRT01PN": 0,
    "TRTP": "Placebo",
    "TRTA": "Placebo",
    "TRTSDT": "2013-10-08",
    "TRTEDT": "2014-03-18",
    "SAFFL": "Y",
    "ITTFL": "Y",
    "EFFFL": "Y",
    "PARAMCD": "NPTOT",
    "PARAM": "NPI-X Total (9) Score",
    "PARAMN": 1,
    "AVAL": 0,
    "BASE": 0,
    "CHG": 0,
    "AVISIT": "Week 20",
    "AVISITN": 20,
    "ADT": "2014-01-27",
    "ADY": 112,
    "ABLFL": null,
    "ANL01FL": "Y",
    "DTYPE": null
  },
  {
    "STUDYID": "CDISCPILOT01",
    "USUBJID": "01-701-1345",
    "SITEID": "701",
    "SITEGR1": "701",
    "TRT01P": "Placebo",
    "TRT01A": "Placebo",
    "TRT01PN": 0,
    "TRTP": "Placebo",
    "TRTA": "Placebo",
    "TRTSDT": "2013-10-08",
    "TRTEDT": "2014-03-18",
    "SAFFL": "Y",
    "ITTFL": "Y",
    "EFFFL": "Y",
    "PARAMCD": "NPTOT",
    "PARAM": "NPI-X Total (9) Score",
    "PARAMN": 1,
    "AVAL": 1,
    "BASE": 0,
    "CHG": 1,
    "AVISIT": "Week 24",
    "AVISITN": 24,
    "ADT": "2014-02-25",
    "ADY": 141,
    "ABLFL": null,
    "ANL01FL": "Y",
    "DTYPE": null
  },
  {
    "STUDYID": "CDISCPILOT01",
    "USUBJID": "01-701-1360",
    "SITEID": "701",
    "SITEGR1": "701",
    "TRT01P": "Xanomeline High Dose",
    "TRT01A": "Xanomeline Low Dose",
    "TRT01PN": 2,
    "TRTP": "Xanomeline High Dose",
    "TRTA": "Xanomeline Low Dose",
    "TRTSDT": "2013-07-31",
    "TRTEDT": "2013-08-05",
    "SAFFL": "Y",
    "ITTFL": "Y",
    "EFFFL": "Y",
    "PARAMCD": "NPTOT",
    "PARAM": "NPI-X Total (9) Score",
    "PARAMN": 1,
    "AVAL": 12,
    "BASE": 12,
    "CHG": null,
    "AVISIT": "Baseline",
    "AVISITN": 0,
    "ADT": "2013-07-31",
    "ADY": 1,
    "ABLFL": "Y",
    "ANL01FL": "Y",
    "DTYPE": null
  },
  {
    "STUDYID": "CDISCPILOT01",
    "USUBJID": "01-701-1363",
    "SITEID": "701",
    "SITEGR1": "701",
    "TRT01P": "Placebo",
    "TRT01A": "Placebo",
    "TRT01PN": 0,
    "TRTP": "Placebo",
    "TRTA": "Placebo",
    "TRTSDT": "2013-05-30",
    "TRTEDT": "2013-11-27",
    "SAFFL": "Y",
    "ITTFL": "Y",
    "EFFFL": "Y",
    "PARAMCD": "NPTOT",
    "PARAM": "NPI-X Total (9) Score",
    "PARAMN": 1,
    "AVAL": 11,
    "BASE": 11,
    "CHG": null,
    "AVISIT": "Baseline",
    "AVISITN": 0,
    "ADT": "2013-05-30",
    "ADY": 1,
    "ABLFL": "Y",
    "ANL01FL": "Y",
    "DTYPE": null
  },
  {
    "STUDYID": "CDISCPILOT01",
    "USUBJID": "01-701-1363",
    "SITEID": "701",
    "SITEGR1": "701",
    "TRT01P": "Placebo",
    "TRT01A": "Placebo",
    "TRT01PN": 0,
    "TRTP": "Placebo",
    "TRTA": "Placebo",
    "TRTSDT": "2013-05-30",
    "TRTEDT": "2013-11-27",
    "SAFFL": "Y",
    "ITTFL": "Y",
    "EFFFL": "Y",
    "PARAMCD": "NPTOT",
    "PARAM": "NPI-X Total (9) Score",
    "PARAMN": 1,
    "AVAL": 8,
    "BASE": 11,
    "CHG": -3,
    "AVISIT": "Week 4",
    "AVISITN": 4,
    "ADT": "2013-06-25",
    "ADY": 27,
    "ABLFL": null,
    "ANL01FL": "Y",
    "DTYPE": null
  },
  {
    "STUDYID": "CDISCPILOT01",
    "USUBJID": "01-701-1363",
    "SITEID": "701",
    "SITEGR1": "701",
    "TRT01P": "Placebo",
    "TRT01A": "Placebo",
    "TRT01PN": 0,
    "TRTP": "Placebo",
    "TRTA": "Placebo",
    "TRTSDT": "2013-05-30",
    "TRTEDT": "2013-11-27",
    "SAFFL": "Y",
    "ITTFL": "Y",
    "EFFFL": "Y",
    "PARAMCD": "NPTOT",
    "PARAM": "NPI-X Total (9) Score",
    "PARAMN": 1,
    "AVAL": 7,
    "BASE": 11,
    "CHG": -4,
    "AVISIT": "Week 8",
    "AVISITN": 8,
    "ADT": "2013-07-10",
    "ADY": 42,
    "ABLFL": null,
    "ANL01FL": "Y",
    "DTYPE": null
  },
  {
    "STUDYID": "CDISCPILOT01",
    "USUBJID": "01-701-1363",
    "SITEID": "701",
    "SITEGR1": "701",
    "TRT01P": "Placebo",
    "TRT01A": "Placebo",
    "TRT01PN": 0,
    "TRTP": "Placebo",
    "TRTA": "Placebo",
    "TRTSDT": "2013-05-30",
    "TRTEDT": "2013-11-27",
    "SAFFL": "Y",
    "ITTFL": "Y",
    "EFFFL": "Y",
    "PARAMCD": "NPTOT",
    "PARAM": "NPI-X Total (9) Score",
    "PARAMN": 1,
    "AVAL": 12,
    "BASE": 11,
    "CHG": 1,
    "AVISIT": "Week 12",
    "AVISITN": 12,
    "ADT": "2013-07-24",
    "ADY": 56,
    "ABLFL": null,
    "ANL01FL": "Y",
    "DTYPE": null
  },
  {
    "STUDYID": "CDISCPILOT01",
    "USUBJID": "01-701-1363",
    "SITEID": "701",
    "SITEGR1": "701",
    "TRT01P": "Placebo",
    "TRT01A": "Placebo",
    "TRT01PN": 0,
    "TRTP": "Placebo",
    "TRTA": "Placebo",
    "TRTSDT": "2013-05-30",
    "TRTEDT": "2013-11-27",
    "SAFFL": "Y",
    "ITTFL": "Y",
    "EFFFL": "Y",
    "PARAMCD": "NPTOT",
    "PARAM": "NPI-X Total (9) Score",
    "PARAMN": 1,
    "AVAL": 5,
    "BASE": 11,
    "CHG": -6,
    "AVISIT": "Week 16",
    "AVISITN": 16,
    "ADT": "2013-08-21",
    "ADY": 84,
    "ABLFL": null,
    "ANL01FL": "Y",
    "DTYPE": null
  },
  {
    "STUDYID": "CDISCPILOT01",
    "USUBJID": "01-701-1363",
    "SITEID": "701",
    "SITEGR1": "701",
    "TRT01P": "Placebo",
    "TRT01A": "Placebo",
    "TRT01PN": 0,
    "TRTP": "Placebo",
    "TRTA": "Placebo",
    "TRTSDT": "2013-05-30",
    "TRTEDT": "2013-11-27",
    "SAFFL": "Y",
    "ITTFL": "Y",
    "EFFFL": "Y",
    "PARAMCD": "NPTOT",
    "PARAM": "NPI-X Total (9) Score",
    "PARAMN": 1,
    "AVAL": 10,
    "BASE": 11,
    "CHG": -1,
    "AVISIT": "Week 20",
    "AVISITN": 20,
    "ADT": "2013-09-18",
    "ADY": 112,
    "ABLFL": null,
    "ANL01FL": "Y",
    "DTYPE": null
  },
  {
    "STUDYID": "CDISCPILOT01",
    "USUBJID": "01-701-1363",
    "SITEID": "701",
    "SITEGR1": "701",
    "TRT01P": "Placebo",
    "TRT01A": "Placebo",
    "TRT01PN": 0,
    "TRTP": "Placebo",
    "TRTA": "Placebo",
    "TRTSDT": "2013-05-30",
    "TRTEDT": "2013-11-27",
    "SAFFL": "Y",
    "ITTFL": "Y",
    "EFFFL": "Y",
    "PARAMCD": "NPTOT",
    "PARAM": "NPI-X Total (9) Score",
    "PARAMN": 1,
    "AVAL": 10,
    "BASE": 11,
    "CHG": -1,
    "AVISIT": "Week 24",
    "AVISITN": 24,
    "ADT": "2013-10-14",
    "ADY": 138,
    "ABLFL": null,
    "ANL01FL": "Y",
    "DTYPE": null
  },
  {
    "STUDYID": "CDISCPILOT01",
    "USUBJID": "01-701-1383",
    "SITEID": "701",
    "SITEGR1": "701",
    "TRT01P": "Xanomeline High Dose",
    "TRT01A": "Xanomeline High Dose",
    "TRT01PN": 2,
    "TRTP": "Xanomeline High Dose",
    "TRTA": "Xanomeline High Dose",
    "TRTSDT": "2013-02-04",
    "TRTEDT": "2013-08-06",
    "SAFFL": "Y",
    "ITTFL": "Y",
    "EFFFL": "Y",
    "PARAMCD": "NPTOT",
    "PARAM": "NPI-X Total (9) Score",
    "PARAMN": 1,
    "AVAL": 0,
    "BASE": 0,
    "CHG": null,
    "AVISIT": "Baseline",
    "AVISITN": 0,
    "ADT": "2013-02-04",
    "ADY": 1,
    "ABLFL": "Y",
    "ANL01FL": "Y",
    "DTYPE": null
  },
  {
    "STUDYID": "CDISCPILOT01",
    "USUBJID": "01-701-1383",
    "SITEID": "701",
    "SITEGR1": "701",
    "TRT01P": "Xanomeline High Dose",
    "TRT01A": "Xanomeline High Dose",
    "TRT01PN": 2,
    "TRTP": "Xanomeline High Dose",
    "TRTA": "Xanomeline High Dose",
    "TRTSDT": "2013-02-04",
    "TRTEDT": "2013-08-06",
    "SAFFL": "Y",
    "ITTFL": "Y",
    "EFFFL": "Y",
    "PARAMCD": "NPTOT",
    "PARAM": "NPI-X Total (9) Score",
    "PARAMN": 1,
    "AVAL": 0,
    "BASE": 0,
    "CHG": 0,
    "AVISIT": "Week 4",
    "AVISITN": 4,
    "ADT": "2013-03-12",
    "ADY": 37,
    "ABLFL": null,
    "ANL01FL": "Y",
    "DTYPE": null
  },
  {
    "STUDYID": "CDISCPILOT01",
    "USUBJID": "01-701-1383",
    "SITEID": "701",
    "SITEGR1": "701",
    "TRT01P": "Xanomeline High Dose",
    "TRT01A": "Xanomeline High Dose",
    "TRT01PN": 2,
    "TRTP": "Xanomeline High Dose",
    "TRTA": "Xanomeline High Dose",
    "TRTSDT": "2013-02-04",
    "TRTEDT": "2013-08-06",
    "SAFFL": "Y",
    "ITTFL": "Y",
    "EFFFL": "Y",
    "PARAMCD": "NPTOT",
    "PARAM": "NPI-X Total (9) Score",
    "PARAMN": 1,
    "AVAL": 0,
    "BASE": 0,
    "CHG": 0,
    "AVISIT": "Week 8",
    "AVISITN": 8,
    "ADT": "2013-03-19",
    "ADY": 44,
    "ABLFL": null,
    "ANL01FL": "Y",
    "DTYPE": null
  },
  {
    "STUDYID": "CDISCPILOT01",
    "USUBJID": "01-701-1383",
    "SITEID": "701",
    "SITEGR1": "701",
    "TRT01P": "Xanomeline High Dose",
    "TRT01A": "Xanomeline High Dose",
    "TRT01PN": 2,
    "TRTP": "Xanomeline High Dose",
    "TRTA": "Xanomeline High Dose",
    "TRTSDT": "2013-02-04",
    "TRTEDT": "2013-08-06",
    "SAFFL": "Y",
    "ITTFL": "Y",
    "EFFFL": "Y",
    "PARAMCD": "NPTOT",
    "PARAM": "NPI-X Total (9) Score",
    "PARAMN": 1,
    "AVAL": 0,
    "BASE": 0,
    "CHG": 0,
    "AVISIT": "Week 12",
    "AVISITN": 12,
    "ADT": "2013-04-02",
    "ADY": 58,
    "ABLFL": null,
    "ANL01FL": "Y",
    "DTYPE": null
  },
  {
    "STUDYID": "CDISCPILOT01",
    "USUBJID": "01-701-1383",
    "SITEID": "701",
    "SITEGR1": "701",
    "TRT01P": "Xanomeline High Dose",
    "TRT01A": "Xanomeline High Dose",
    "TRT01PN": 2,
    "TRTP": "Xanomeline High Dose",
    "TRTA": "Xanomeline High Dose",
    "TRTSDT": "2013-02-04",
    "TRTEDT": "2013-08-06",
    "SAFFL": "Y",
    "ITTFL": "Y",
    "EFFFL": "Y",
    "PARAMCD": "NPTOT",
    "PARAM": "NPI-X Total (9) Score",
    "PARAMN": 1,
    "AVAL": 0,
    "BASE": 0,
    "CHG": 0,
    "AVISIT": "Week 16",
    "AVISITN": 16,
    "ADT": "2013-04-30",
    "ADY": 86,
    "ABLFL": null,
    "ANL01FL": "Y",
    "DTYPE": null
  },
  {
    "STUDYID": "CDISCPILOT01",
    "USUBJID": "01-701-1383",
    "SITEID": "701",
    "SITEGR1": "701",
    "TRT01P": "Xanomeline High Dose",
    "TRT01A": "Xanomeline High Dose",
    "TRT01PN": 2,
    "TRTP": "Xanomeline High Dose",
    "TRTA": "Xanomeline High Dose",
    "TRTSDT": "2013-02-04",
    "TRTEDT": "2013-08-06",
    "SAFFL": "Y",
    "ITTFL": "Y",
    "EFFFL": "Y",
    "PARAMCD": "NPTOT",
    "PARAM": "NPI-X Total (9) Score",
    "PARAMN": 1,
    "AVAL": 0,
    "BASE": 0,
    "CHG": 0,
    "AVISIT": "Week 20",
    "AVISITN": 20,
    "ADT": "2013-05-30",
    "ADY": 116,
    "ABLFL": null,
    "ANL01FL": "Y",
    "DTYPE": null
  },
  {
    "STUDYID": "CDISCPILOT01",
    "USUBJID": "01-701-1383",
    "SITEID": "701",
    "SITEGR1": "701",
    "TRT01P": "Xanomeline High Dose",
    "TRT01A": "Xanomeline High Dose",
    "TRT01PN": 2,
    "TRTP": "Xanomeline High Dose",
    "TRTA": "Xanomeline High Dose",
    "TRTSDT": "2013-02-04",
    "TRTEDT": "2013-08-06",
    "SAFFL": "Y",
    "ITTFL": "Y",
    "EFFFL": "Y",
    "PARAMCD": "NPTOT",
    "PARAM": "NPI-X Total (9) Score",
    "PARAMN": 1,
    "AVAL": 0,
    "BASE": 0,
    "CHG": 0,
    "AVISIT": "Week 24",
    "AVISITN": 24,
    "ADT": "2013-06-25",
    "ADY": 142,
    "ABLFL": null,
    "ANL01FL": "Y",
    "DTYPE": null
  },
  {
    "STUDYID": "CDISCPILOT01",
    "USUBJID": "01-701-1387",
    "SITEID": "701",
    "SITEGR1": "701",
    "TRT01P": "Placebo",
    "TRT01A": "Placebo",
    "TRT01PN": 0,
    "TRTP": "Placebo",
    "TRTA": "Placebo",
    "TRTSDT": "2014-03-12",
    "TRTEDT": "2014-03-25",
    "SAFFL": "Y",
    "ITTFL": "Y",
    "EFFFL": "Y",
    "PARAMCD": "NPTOT",
    "PARAM": "NPI-X Total (9) Score",
    "PARAMN": 1,
    "AVAL": 26,
    "BASE": 26,
    "CHG": null,
    "AVISIT": "Baseline",
    "AVISITN": 0,
    "ADT": "2014-03-12",
    "ADY": 1,
    "ABLFL": "Y",
    "ANL01FL": "Y",
    "DTYPE": null
  },
  {
    "STUDYID": "CDISCPILOT01",
    "USUBJID": "01-701-1392",
    "SITEID": "701",
    "SITEGR1": "701",
    "TRT01P": "Placebo",
    "TRT01A": "Placebo",
    "TRT01PN": 0,
    "TRTP": "Placebo",
    "TRTA": "Placebo",
    "TRTSDT": "2012-10-28",
    "TRTEDT": "2013-04-28",
    "SAFFL": "Y",
    "ITTFL": "Y",
    "EFFFL": "Y",
    "PARAMCD": "NPTOT",
    "PARAM": "NPI-X Total (9) Score",
    "PARAMN": 1,
    "AVAL": 0,
    "BASE": 0,
    "CHG": null,
    "AVISIT": "Baseline",
    "AVISITN": 0,
    "ADT": "2012-10-28",
    "ADY": 1,
    "ABLFL": "Y",
    "ANL01FL": "Y",
    "DTYPE": null
  },
  {
    "STUDYID": "CDISCPILOT01",
    "USUBJID": "01-701-1392",
    "SITEID": "701",
    "SITEGR1": "701",
    "TRT01P": "Placebo",
    "TRT01A": "Placebo",
    "TRT01PN": 0,
    "TRTP": "Placebo",
    "TRTA": "Placebo",
    "TRTSDT": "2012-10-28",
    "TRTEDT": "2013-04-28",
    "SAFFL": "Y",
    "ITTFL": "Y",
    "EFFFL": "Y",
    "PARAMCD": "NPTOT",
    "PARAM": "NPI-X Total (9) Score",
    "PARAMN": 1,
    "AVAL": 0,
    "BASE": 0,
    "CHG": 0,
    "AVISIT": "Week 4",
    "AVISITN": 4,
    "ADT": "2012-11-24",
    "ADY": 28,
    "ABLFL": null,
    "ANL01FL": "Y",
    "DTYPE": null
  },
  {
    "STUDYID": "CDISCPILOT01",
    "USUBJID": "01-701-1392",
    "SITEID": "701",
    "SITEGR1": "701",
    "TRT01P": "Placebo",
    "TRT01A": "Placebo",
    "TRT01PN": 0,
    "TRTP": "Placebo",
    "TRTA": "Placebo",
    "TRTSDT": "2012-10-28",
    "TRTEDT": "2013-04-28",
    "SAFFL": "Y",
    "ITTFL": "Y",
    "EFFFL": "Y",
    "PARAMCD": "NPTOT",
    "PARAM": "NPI-X Total (9) Score",
    "PARAMN": 1,
    "AVAL": 2,
    "BASE": 0,
    "CHG": 2,
    "AVISIT": "Week 8",
    "AVISITN": 8,
    "ADT": "2012-12-09",
    "ADY": 43,
    "ABLFL": null,
    "ANL01FL": "Y",
    "DTYPE": null
  },
  {
    "STUDYID": "CDISCPILOT01",
    "USUBJID": "01-701-1392",
    "SITEID": "701",
    "SITEGR1": "701",
    "TRT01P": "Placebo",
    "TRT01A": "Placebo",
    "TRT01PN": 0,
    "TRTP": "Placebo",
    "TRTA": "Placebo",
    "TRTSDT": "2012-10-28",
    "TRTEDT": "2013-04-28",
    "SAFFL": "Y",
    "ITTFL": "Y",
    "EFFFL": "Y",
    "PARAMCD": "NPTOT",
    "PARAM": "NPI-X Total (9) Score",
    "PARAMN": 1,
    "AVAL": 0,
    "BASE": 0,
    "CHG": 0,
    "AVISIT": "Week 12",
    "AVISITN": 12,
    "ADT": "2012-12-20",
    "ADY": 54,
    "ABLFL": null,
    "ANL01FL": "Y",
    "DTYPE": null
  },
  {
    "STUDYID": "CDISCPILOT01",
    "USUBJID": "01-701-1392",
    "SITEID": "701",
    "SITEGR1": "701",
    "TRT01P": "Placebo",
    "TRT01A": "Placebo",
    "TRT01PN": 0,
    "TRTP": "Placebo",
    "TRTA": "Placebo",
    "TRTSDT": "2012-10-28",
    "TRTEDT": "2013-04-28",
    "SAFFL": "Y",
    "ITTFL": "Y",
    "EFFFL": "Y",
    "PARAMCD": "NPTOT",
    "PARAM": "NPI-X Total (9) Score",
    "PARAMN": 1,
    "AVAL": 0,
    "BASE": 0,
    "CHG": 0,
    "AVISIT": "Week 16",
    "AVISITN": 16,
    "ADT": "2013-01-20",
    "ADY": 85,
    "ABLFL": null,
    "ANL01FL": "Y",
    "DTYPE": null
  },
  {
    "STUDYID": "CDISCPILOT01",
    "USUBJID": "01-701-1392",
    "SITEID": "701",
    "SITEGR1": "701",
    "TRT01P": "Placebo",
    "TRT01A": "Placebo",
    "TRT01PN": 0,
    "TRTP": "Placebo",
    "TRTA": "Placebo",
    "TRTSDT": "2012-10-28",
    "TRTEDT": "2013-04-28",
    "SAFFL": "Y",
    "ITTFL": "Y",
    "EFFFL": "Y",
    "PARAMCD": "NPTOT",
    "PARAM": "NPI-X Total (9) Score",
    "PARAMN": 1,
    "AVAL": 1,
    "BASE": 0,
    "CHG": 1,
    "AVISIT": "Week 20",
    "AVISITN": 20,
    "ADT": "2013-02-17",
    "ADY": 113,
    "ABLFL": null,
    "ANL01FL": "Y",
    "DTYPE": null
  },
  {
    "STUDYID": "CDISCPILOT01",
    "USUBJID": "01-701-1392",
    "SITEID": "701",
    "SITEGR1": "701",
    "TRT01P": "Placebo",
    "TRT01A": "Placebo",
    "TRT01PN": 0,
    "TRTP": "Placebo",
    "TRTA": "Placebo",
    "TRTSDT": "2012-10-28",
    "TRTEDT": "2013-04-28",
    "SAFFL": "Y",
    "ITTFL": "Y",
    "EFFFL": "Y",
    "PARAMCD": "NPTOT",
    "PARAM": "NPI-X Total (9) Score",
    "PARAMN": 1,
    "AVAL": 0,
    "BASE": 0,
    "CHG": 0,
    "AVISIT": "Week 24",
    "AVISITN": 24,
    "ADT": "2013-03-17",
    "ADY": 141,
    "ABLFL": null,
    "ANL01FL": "Y",
    "DTYPE": null
  },
  {
    "STUDYID": "CDISCPILOT01",
    "USUBJID": "01-701-1415",
    "SITEID": "701",
    "SITEGR1": "701",
    "TRT01P": "Placebo",
    "TRT01A": "Placebo",
    "TRT01PN": 0,
    "TRTP": "Placebo",
    "TRTA": "Placebo",
    "TRTSDT": "2013-09-23",
    "TRTEDT": "2014-03-24",
    "SAFFL": "Y",
    "ITTFL": "Y",
    "EFFFL": "Y",
    "PARAMCD": "NPTOT",
    "PARAM": "NPI-X Total (9) Score",
    "PARAMN": 1,
    "AVAL": 6,
    "BASE": 6,
    "CHG": null,
    "AVISIT": "Baseline",
    "AVISITN": 0,
    "ADT": "2013-09-23",
    "ADY": 1,
    "ABLFL": "Y",
    "ANL01FL": "Y",
    "DTYPE": null
  },
  {
    "STUDYID": "CDISCPILOT01",
    "USUBJID": "01-701-1415",
    "SITEID": "701",
    "SITEGR1": "701",
    "TRT01P": "Placebo",
    "TRT01A": "Placebo",
    "TRT01PN": 0,
    "TRTP": "Placebo",
    "TRTA": "Placebo",
    "TRTSDT": "2013-09-23",
    "TRTEDT": "2014-03-24",
    "SAFFL": "Y",
    "ITTFL": "Y",
    "EFFFL": "Y",
    "PARAMCD": "NPTOT",
    "PARAM": "NPI-X Total (9) Score",
    "PARAMN": 1,
    "AVAL": 21,
    "BASE": 6,
    "CHG": 15,
    "AVISIT": "Week 4",
    "AVISITN": 4,
    "ADT": "2013-10-20",
    "ADY": 28,
    "ABLFL": null,
    "ANL01FL": "Y",
    "DTYPE": null
  },
  {
    "STUDYID": "CDISCPILOT01",
    "USUBJID": "01-701-1415",
    "SITEID": "701",
    "SITEGR1": "701",
    "TRT01P": "Placebo",
    "TRT01A": "Placebo",
    "TRT01PN": 0,
    "TRTP": "Placebo",
    "TRTA": "Placebo",
    "TRTSDT": "2013-09-23",
    "TRTEDT": "2014-03-24",
    "SAFFL": "Y",
    "ITTFL": "Y",
    "EFFFL": "Y",
    "PARAMCD": "NPTOT",
    "PARAM": "NPI-X Total (9) Score",
    "PARAMN": 1,
    "AVAL": 1,
    "BASE": 6,
    "CHG": -5,
    "AVISIT": "Week 8",
    "AVISITN": 8,
    "ADT": "2013-11-04",
    "ADY": 43,
    "ABLFL": null,
    "ANL01FL": "Y",
    "DTYPE": null
  },
  {
    "STUDYID": "CDISCPILOT01",
    "USUBJID": "01-701-1415",
    "SITEID": "701",
    "SITEGR1": "701",
    "TRT01P": "Placebo",
    "TRT01A": "Placebo",
    "TRT01PN": 0,
    "TRTP": "Placebo",
    "TRTA": "Placebo",
    "TRTSDT": "2013-09-23",
    "TRTEDT": "2014-03-24",
    "SAFFL": "Y",
    "ITTFL": "Y",
    "EFFFL": "Y",
    "PARAMCD": "NPTOT",
    "PARAM": "NPI-X Total (9) Score",
    "PARAMN": 1,
    "AVAL": 11,
    "BASE": 6,
    "CHG": 5,
    "AVISIT": "Week 12",
    "AVISITN": 12,
    "ADT": "2013-11-21",
    "ADY": 60,
    "ABLFL": null,
    "ANL01FL": "Y",
    "DTYPE": null
  },
  {
    "STUDYID": "CDISCPILOT01",
    "USUBJID": "01-701-1415",
    "SITEID": "701",
    "SITEGR1": "701",
    "TRT01P": "Placebo",
    "TRT01A": "Placebo",
    "TRT01PN": 0,
    "TRTP": "Placebo",
    "TRTA": "Placebo",
    "TRTSDT": "2013-09-23",
    "TRTEDT": "2014-03-24",
    "SAFFL": "Y",
    "ITTFL": "Y",
    "EFFFL": "Y",
    "PARAMCD": "NPTOT",
    "PARAM": "NPI-X Total (9) Score",
    "PARAMN": 1,
    "AVAL": 0,
    "BASE": 6,
    "CHG": -6,
    "AVISIT": "Week 16",
    "AVISITN": 16,
    "ADT": "2013-12-21",
    "ADY": 90,
    "ABLFL": null,
    "ANL01FL": "Y",
    "DTYPE": null
  },
  {
    "STUDYID": "CDISCPILOT01",
    "USUBJID": "01-701-1415",
    "SITEID": "701",
    "SITEGR1": "701",
    "TRT01P": "Placebo",
    "TRT01A": "Placebo",
    "TRT01PN": 0,
    "TRTP": "Placebo",
    "TRTA": "Placebo",
    "TRTSDT": "2013-09-23",
    "TRTEDT": "2014-03-24",
    "SAFFL": "Y",
    "ITTFL": "Y",
    "EFFFL": "Y",
    "PARAMCD": "NPTOT",
    "PARAM": "NPI-X Total (9) Score",
    "PARAMN": 1,
    "AVAL": 14,
    "BASE": 6,
    "CHG": 8,
    "AVISIT": "Week 20",
    "AVISITN": 20,
    "ADT": "2014-01-14",
    "ADY": 114,
    "ABLFL": null,
    "ANL01FL": "Y",
    "DTYPE": null
  },
  {
    "STUDYID": "CDISCPILOT01",
    "USUBJID": "01-701-1415",
    "SITEID": "701",
    "SITEGR1": "701",
    "TRT01P": "Placebo",
    "TRT01A": "Placebo",
    "TRT01PN": 0,
    "TRTP": "Placebo",
    "TRTA": "Placebo",
    "TRTSDT": "2013-09-23",
    "TRTEDT": "2014-03-24",
    "SAFFL": "Y",
    "ITTFL": "Y",
    "EFFFL": "Y",
    "PARAMCD": "NPTOT",
    "PARAM": "NPI-X Total (9) Score",
    "PARAMN": 1,
    "AVAL": 0,
    "BASE": 6,
    "CHG": -6,
    "AVISIT": "Week 24",
    "AVISITN": 24,
    "ADT": "2014-02-10",
    "ADY": 141,
    "ABLFL": null,
    "ANL01FL": "Y",
    "DTYPE": null
  },
  {
    "STUDYID": "CDISCPILOT01",
    "USUBJID": "01-701-1429",
    "SITEID": "701",
    "SITEGR1": "701",
    "TRT01P": "Xanomeline Low Dose",
    "TRT01A": "Xanomeline Low Dose",
    "TRT01PN": 1,
    "TRTP": "Xanomeline Low Dose",
    "TRTA": "Xanomeline Low Dose",
    "TRTSDT": "2013-03-19",
    "TRTEDT": "2013-04-30",
    "SAFFL": "Y",
    "ITTFL": "Y",
    "EFFFL": "Y",
    "PARAMCD": "NPTOT",
    "PARAM": "NPI-X Total (9) Score",
    "PARAMN": 1,
    "AVAL": 0,
    "BASE": 0,
    "CHG": null,
    "AVISIT": "Baseline",
    "AVISITN": 0,
    "ADT": "2013-03-19",
    "ADY": 1,
    "ABLFL": "Y",
    "ANL01FL": "Y",
    "DTYPE": null
  },
  {
    "STUDYID": "CDISCPILOT01",
    "USUBJID": "01-701-1429",
    "SITEID": "701",
    "SITEGR1": "701",
    "TRT01P": "Xanomeline Low Dose",
    "TRT01A": "Xanomeline Low Dose",
    "TRT01PN": 1,
    "TRTP": "Xanomeline Low Dose",
    "TRTA": "Xanomeline Low Dose",
    "TRTSDT": "2013-03-19",
    "TRTEDT": "2013-04-30",
    "SAFFL": "Y",
    "ITTFL": "Y",
    "EFFFL": "Y",
    "PARAMCD": "NPTOT",
    "PARAM": "NPI-X Total (9) Score",
    "PARAMN": 1,
    "AVAL": 0,
    "BASE": 0,
    "CHG": 0,
    "AVISIT": "Week 4",
    "AVISITN": 4,
    "ADT": "2013-04-16",
    "ADY": 29,
    "ABLFL": null,
    "ANL01FL": "Y",
    "DTYPE": null
  },
  {
    "STUDYID": "CDISCPILOT01",
    "USUBJID": "01-701-1429",
    "SITEID": "701",
    "SITEGR1": "701",
    "TRT01P": "Xanomeline Low Dose",
    "TRT01A": "Xanomeline Low Dose",
    "TRT01PN": 1,
    "TRTP": "Xanomeline Low Dose",
    "TRTA": "Xanomeline Low Dose",
    "TRTSDT": "2013-03-19",
    "TRTEDT": "2013-04-30",
    "SAFFL": "Y",
    "ITTFL": "Y",
    "EFFFL": "Y",
    "PARAMCD": "NPTOT",
    "PARAM": "NPI-X Total (9) Score",
    "PARAMN": 1,
    "AVAL": 0,
    "BASE": 0,
    "CHG": 0,
    "AVISIT": "Week 8",
    "AVISITN": 8,
    "ADT": "2013-04-30",
    "ADY": 43,
    "ABLFL": null,
    "ANL01FL": "Y",
    "DTYPE": null
  },
  {
    "STUDYID": "CDISCPILOT01",
    "USUBJID": "01-701-1440",
    "SITEID": "701",
    "SITEGR1": "701",
    "TRT01P": "Placebo",
    "TRT01A": "Placebo",
    "TRT01PN": 0,
    "TRTP": "Placebo",
    "TRTA": "Placebo",
    "TRTSDT": "2013-08-08",
    "TRTEDT": "2014-02-05",
    "SAFFL": "Y",
    "ITTFL": "Y",
    "EFFFL": "Y",
    "PARAMCD": "NPTOT",
    "PARAM": "NPI-X Total (9) Score",
    "PARAMN": 1,
    "AVAL": 40,
    "BASE": 40,
    "CHG": null,
    "AVISIT": "Baseline",
    "AVISITN": 0,
    "ADT": "2013-08-08",
    "ADY": 1,
    "ABLFL": "Y",
    "ANL01FL": "Y",
    "DTYPE": null
  },
  {
    "STUDYID": "CDISCPILOT01",
    "USUBJID": "01-701-1440",
    "SITEID": "701",
    "SITEGR1": "701",
    "TRT01P": "Placebo",
    "TRT01A": "Placebo",
    "TRT01PN": 0,
    "TRTP": "Placebo",
    "TRTA": "Placebo",
    "TRTSDT": "2013-08-08",
    "TRTEDT": "2014-02-05",
    "SAFFL": "Y",
    "ITTFL": "Y",
    "EFFFL": "Y",
    "PARAMCD": "NPTOT",
    "PARAM": "NPI-X Total (9) Score",
    "PARAMN": 1,
    "AVAL": 57,
    "BASE": 40,
    "CHG": 17,
    "AVISIT": "Week 4",
    "AVISITN": 4,
    "ADT": "2013-09-04",
    "ADY": 28,
    "ABLFL": null,
    "ANL01FL": "Y",
    "DTYPE": null
  },
  {
    "STUDYID": "CDISCPILOT01",
    "USUBJID": "01-701-1440",
    "SITEID": "701",
    "SITEGR1": "701",
    "TRT01P": "Placebo",
    "TRT01A": "Placebo",
    "TRT01PN": 0,
    "TRTP": "Placebo",
    "TRTA": "Placebo",
    "TRTSDT": "2013-08-08",
    "TRTEDT": "2014-02-05",
    "SAFFL": "Y",
    "ITTFL": "Y",
    "EFFFL": "Y",
    "PARAMCD": "NPTOT",
    "PARAM": "NPI-X Total (9) Score",
    "PARAMN": 1,
    "AVAL": 46,
    "BASE": 40,
    "CHG": 6,
    "AVISIT": "Week 8",
    "AVISITN": 8,
    "ADT": "2013-09-22",
    "ADY": 46,
    "ABLFL": null,
    "ANL01FL": "Y",
    "DTYPE": null
  },
  {
    "STUDYID": "CDISCPILOT01",
    "USUBJID": "01-701-1440",
    "SITEID": "701",
    "SITEGR1": "701",
    "TRT01P": "Placebo",
    "TRT01A": "Placebo",
    "TRT01PN": 0,
    "TRTP": "Placebo",
    "TRTA": "Placebo",
    "TRTSDT": "2013-08-08",
    "TRTEDT": "2014-02-05",
    "SAFFL": "Y",
    "ITTFL": "Y",
    "EFFFL": "Y",
    "PARAMCD": "NPTOT",
    "PARAM": "NPI-X Total (9) Score",
    "PARAMN": 1,
    "AVAL": 45,
    "BASE": 40,
    "CHG": 5,
    "AVISIT": "Week 12",
    "AVISITN": 12,
    "ADT": "2013-10-03",
    "ADY": 57,
    "ABLFL": null,
    "ANL01FL": "Y",
    "DTYPE": null
  },
  {
    "STUDYID": "CDISCPILOT01",
    "USUBJID": "01-701-1440",
    "SITEID": "701",
    "SITEGR1": "701",
    "TRT01P": "Placebo",
    "TRT01A": "Placebo",
    "TRT01PN": 0,
    "TRTP": "Placebo",
    "TRTA": "Placebo",
    "TRTSDT": "2013-08-08",
    "TRTEDT": "2014-02-05",
    "SAFFL": "Y",
    "ITTFL": "Y",
    "EFFFL": "Y",
    "PARAMCD": "NPTOT",
    "PARAM": "NPI-X Total (9) Score",
    "PARAMN": 1,
    "AVAL": 44,
    "BASE": 40,
    "CHG": 4,
    "AVISIT": "Week 16",
    "AVISITN": 16,
    "ADT": "2013-10-31",
    "ADY": 85,
    "ABLFL": null,
    "ANL01FL": "Y",
    "DTYPE": null
  },
  {
    "STUDYID": "CDISCPILOT01",
    "USUBJID": "01-701-1440",
    "SITEID": "701",
    "SITEGR1": "701",
    "TRT01P": "Placebo",
    "TRT01A": "Placebo",
    "TRT01PN": 0,
    "TRTP": "Placebo",
    "TRTA": "Placebo",
    "TRTSDT": "2013-08-08",
    "TRTEDT": "2014-02-05",
    "SAFFL": "Y",
    "ITTFL": "Y",
    "EFFFL": "Y",
    "PARAMCD": "NPTOT",
    "PARAM": "NPI-X Total (9) Score",
    "PARAMN": 1,
    "AVAL": 36,
    "BASE": 40,
    "CHG": -4,
    "AVISIT": "Week 20",
    "AVISITN": 20,
    "ADT": "2013-11-27",
    "ADY": 112,
    "ABLFL": null,
    "ANL01FL": "Y",
    "DTYPE": null
  },
  {
    "STUDYID": "CDISCPILOT01",
    "USUBJID": "01-701-1440",
    "SITEID": "701",
    "SITEGR1": "701",
    "TRT01P": "Placebo",
    "TRT01A": "Placebo",
    "TRT01PN": 0,
    "TRTP": "Placebo",
    "TRTA": "Placebo",
    "TRTSDT": "2013-08-08",
    "TRTEDT": "2014-02-05",
    "SAFFL": "Y",
    "ITTFL": "Y",
    "EFFFL": "Y",
    "PARAMCD": "NPTOT",
    "PARAM": "NPI-X Total (9) Score",
    "PARAMN": 1,
    "AVAL": 28,
    "BASE": 40,
    "CHG": -12,
    "AVISIT": "Week 24",
    "AVISITN": 24,
    "ADT": "2013-12-25",
    "ADY": 140,
    "ABLFL": null,
    "ANL01FL": "Y",
    "DTYPE": null
  },
  {
    "STUDYID": "CDISCPILOT01",
    "USUBJID": "01-701-1442",
    "SITEID": "701",
    "SITEGR1": "701",
    "TRT01P": "Xanomeline Low Dose",
    "TRT01A": "Xanomeline Low Dose",
    "TRT01PN": 1,
    "TRTP": "Xanomeline Low Dose",
    "TRTA": "Xanomeline Low Dose",
    "TRTSDT": "2013-10-26",
    "TRTEDT": "2014-04-26",
    "SAFFL": "Y",
    "ITTFL": "Y",
    "EFFFL": "Y",
    "PARAMCD": "NPTOT",
    "PARAM": "NPI-X Total (9) Score",
    "PARAMN": 1,
    "AVAL": 2,
    "BASE": 2,
    "CHG": null,
    "AVISIT": "Baseline",
    "AVISITN": 0,
    "ADT": "2013-10-26",
    "ADY": 1,
    "ABLFL": "Y",
    "ANL01FL": "Y",
    "DTYPE": null
  },
  {
    "STUDYID": "CDISCPILOT01",
    "USUBJID": "01-701-1442",
    "SITEID": "701",
    "SITEGR1": "701",
    "TRT01P": "Xanomeline Low Dose",
    "TRT01A": "Xanomeline Low Dose",
    "TRT01PN": 1,
    "TRTP": "Xanomeline Low Dose",
    "TRTA": "Xanomeline Low Dose",
    "TRTSDT": "2013-10-26",
    "TRTEDT": "2014-04-26",
    "SAFFL": "Y",
    "ITTFL": "Y",
    "EFFFL": "Y",
    "PARAMCD": "NPTOT",
    "PARAM": "NPI-X Total (9) Score",
    "PARAMN": 1,
    "AVAL": 2,
    "BASE": 2,
    "CHG": 0,
    "AVISIT": "Week 4",
    "AVISITN": 4,
    "ADT": "2013-11-23",
    "ADY": 29,
    "ABLFL": null,
    "ANL01FL": "Y",
    "DTYPE": null
  },
  {
    "STUDYID": "CDISCPILOT01",
    "USUBJID": "01-701-1442",
    "SITEID": "701",
    "SITEGR1": "701",
    "TRT01P": "Xanomeline Low Dose",
    "TRT01A": "Xanomeline Low Dose",
    "TRT01PN": 1,
    "TRTP": "Xanomeline Low Dose",
    "TRTA": "Xanomeline Low Dose",
    "TRTSDT": "2013-10-26",
    "TRTEDT": "2014-04-26",
    "SAFFL": "Y",
    "ITTFL": "Y",
    "EFFFL": "Y",
    "PARAMCD": "NPTOT",
    "PARAM": "NPI-X Total (9) Score",
    "PARAMN": 1,
    "AVAL": 2,
    "BASE": 2,
    "CHG": 0,
    "AVISIT": "Week 8",
    "AVISITN": 8,
    "ADT": "2013-12-07",
    "ADY": 43,
    "ABLFL": null,
    "ANL01FL": "Y",
    "DTYPE": null
  },
  {
    "STUDYID": "CDISCPILOT01",
    "USUBJID": "01-701-1442",
    "SITEID": "701",
    "SITEGR1": "701",
    "TRT01P": "Xanomeline Low Dose",
    "TRT01A": "Xanomeline Low Dose",
    "TRT01PN": 1,
    "TRTP": "Xanomeline Low Dose",
    "TRTA": "Xanomeline Low Dose",
    "TRTSDT": "2013-10-26",
    "TRTEDT": "2014-04-26",
    "SAFFL": "Y",
    "ITTFL": "Y",
    "EFFFL": "Y",
    "PARAMCD": "NPTOT",
    "PARAM": "NPI-X Total (9) Score",
    "PARAMN": 1,
    "AVAL": 0,
    "BASE": 2,
    "CHG": -2,
    "AVISIT": "Week 12",
    "AVISITN": 12,
    "ADT": "2013-12-26",
    "ADY": 62,
    "ABLFL": null,
    "ANL01FL": "Y",
    "DTYPE": null
  },
  {
    "STUDYID": "CDISCPILOT01",
    "USUBJID": "01-701-1442",
    "SITEID": "701",
    "SITEGR1": "701",
    "TRT01P": "Xanomeline Low Dose",
    "TRT01A": "Xanomeline Low Dose",
    "TRT01PN": 1,
    "TRTP": "Xanomeline Low Dose",
    "TRTA": "Xanomeline Low Dose",
    "TRTSDT": "2013-10-26",
    "TRTEDT": "2014-04-26",
    "SAFFL": "Y",
    "ITTFL": "Y",
    "EFFFL": "Y",
    "PARAMCD": "NPTOT",
    "PARAM": "NPI-X Total (9) Score",
    "PARAMN": 1,
    "AVAL": 0,
    "BASE": 2,
    "CHG": -2,
    "AVISIT": "Week 16",
    "AVISITN": 16,
    "ADT": "2014-01-18",
    "ADY": 85,
    "ABLFL": null,
    "ANL01FL": "Y",
    "DTYPE": null
  },
  {
    "STUDYID": "CDISCPILOT01",
    "USUBJID": "01-701-1442",
    "SITEID": "701",
    "SITEGR1": "701",
    "TRT01P": "Xanomeline Low Dose",
    "TRT01A": "Xanomeline Low Dose",
    "TRT01PN": 1,
    "TRTP": "Xanomeline Low Dose",
    "TRTA": "Xanomeline Low Dose",
    "TRTSDT": "2013-10-26",
    "TRTEDT": "2014-04-26",
    "SAFFL": "Y",
    "ITTFL": "Y",
    "EFFFL": "Y",
    "PARAMCD": "NPTOT",
    "PARAM": "NPI-X Total (9) Score",
    "PARAMN": 1,
    "AVAL": 0,
    "BASE": 2,
    "CHG": -2,
    "AVISIT": "Week 20",
    "AVISITN": 20,
    "ADT": "2014-02-15",
    "ADY": 113,
    "ABLFL": null,
    "ANL01FL": "Y",
    "DTYPE": null
  },
  {
    "STUDYID": "CDISCPILOT01",
    "USUBJID": "01-701-1442",
    "SITEID": "701",
    "SITEGR1": "701",
    "TRT01P": "Xanomeline Low Dose",
    "TRT01A": "Xanomeline Low Dose",
    "TRT01PN": 1,
    "TRTP": "Xanomeline Low Dose",
    "TRTA": "Xanomeline Low Dose",
    "TRTSDT": "2013-10-26",
    "TRTEDT": "2014-04-26",
    "SAFFL": "Y",
    "ITTFL": "Y",
    "EFFFL": "Y",
    "PARAMCD": "NPTOT",
    "PARAM": "NPI-X Total (9) Score",
    "PARAMN": 1,
    "AVAL": 0,
    "BASE": 2,
    "CHG": -2,
    "AVISIT": "Week 24",
    "AVISITN": 24,
    "ADT": "2014-03-15",
    "ADY": 141,
    "ABLFL": null,
    "ANL01FL": "Y",
    "DTYPE": null
  },
  {
    "STUDYID": "CDISCPILOT01",
    "USUBJID": "01-701-1444",
    "SITEID": "701",
    "SITEGR1": "701",
    "TRT01P": "Xanomeline High Dose",
    "TRT01A": "Xanomeline High Dose",
    "TRT01PN": 2,
    "TRTP": "Xanomeline High Dose",
    "TRTA": "Xanomeline High Dose",
    "TRTSDT": "2013-01-05",
    "TRTEDT": "2013-02-12",
    "SAFFL": "Y",
    "ITTFL": "Y",
    "EFFFL": "Y",
    "PARAMCD": "NPTOT",
    "PARAM": "NPI-X Total (9) Score",
    "PARAMN": 1,
    "AVAL": 18,
    "BASE": 18,
    "CHG": null,
    "AVISIT": "Baseline",
    "AVISITN": 0,
    "ADT": "2013-01-05",
    "ADY": 1,
    "ABLFL": "Y",
    "ANL01FL": "Y",
    "DTYPE": null
  },
  {
    "STUDYID": "CDISCPILOT01",
    "USUBJID": "01-701-1444",
    "SITEID": "701",
    "SITEGR1": "701",
    "TRT01P": "Xanomeline High Dose",
    "TRT01A": "Xanomeline High Dose",
    "TRT01PN": 2,
    "TRTP": "Xanomeline High Dose",
    "TRTA": "Xanomeline High Dose",
    "TRTSDT": "2013-01-05",
    "TRTEDT": "2013-02-12",
    "SAFFL": "Y",
    "ITTFL": "Y",
    "EFFFL": "Y",
    "PARAMCD": "NPTOT",
    "PARAM": "NPI-X Total (9) Score",
    "PARAMN": 1,
    "AVAL": 10,
    "BASE": 18,
    "CHG": -8,
    "AVISIT": "Week 4",
    "AVISITN": 4,
    "ADT": "2013-01-31",
    "ADY": 27,
    "ABLFL": null,
    "ANL01FL": "Y",
    "DTYPE": null
  },
  {
    "STUDYID": "CDISCPILOT01",
    "USUBJID": "01-701-1444",
    "SITEID": "701",
    "SITEGR1": "701",
    "TRT01P": "Xanomeline High Dose",
    "TRT01A": "Xanomeline High Dose",
    "TRT01PN": 2,
    "TRTP": "Xanomeline High Dose",
    "TRTA": "Xanomeline High Dose",
    "TRTSDT": "2013-01-05",
    "TRTEDT": "2013-02-12",
    "SAFFL": "Y",
    "ITTFL": "Y",
    "EFFFL": "Y",
    "PARAMCD": "NPTOT",
    "PARAM": "NPI-X Total (9) Score",
    "PARAMN": 1,
    "AVAL": 5,
    "BASE": 18,
    "CHG": -13,
    "AVISIT": "Week 8",
    "AVISITN": 8,
    "ADT": "2013-02-13",
    "ADY": 40,
    "ABLFL": null,
    "ANL01FL": "Y",
    "DTYPE": null
  },
  {
    "STUDYID": "CDISCPILOT01",
    "USUBJID": "01-702-1082",
    "SITEID": "702",
    "SITEGR1": "900",
    "TRT01P": "Xanomeline Low Dose",
    "TRT01A": "Xanomeline Low Dose",
    "TRT01PN": 1,
    "TRTP": "Xanomeline Low Dose",
    "TRTA": "Xanomeline Low Dose",
    "TRTSDT": "2013-07-26",
    "TRTEDT": "2013-10-13",
    "SAFFL": "Y",
    "ITTFL": "Y",
    "EFFFL": "Y",
    "PARAMCD": "NPTOT",
    "PARAM": "NPI-X Total (9) Score",
    "PARAMN": 1,
    "AVAL": 4,
    "BASE": 4,
    "CHG": null,
    "AVISIT": "Baseline",
    "AVISITN": 0,
    "ADT": "2013-07-26",
    "ADY": 1,
    "ABLFL": "Y",
    "ANL01FL": "Y",
    "DTYPE": null
  },
  {
    "STUDYID": "CDISCPILOT01",
    "USUBJID": "01-702-1082",
    "SITEID": "702",
    "SITEGR1": "900",
    "TRT01P": "Xanomeline Low Dose",
    "TRT01A": "Xanomeline Low Dose",
    "TRT01PN": 1,
    "TRTP": "Xanomeline Low Dose",
    "TRTA": "Xanomeline Low Dose",
    "TRTSDT": "2013-07-26",
    "TRTEDT": "2013-10-13",
    "SAFFL": "Y",
    "ITTFL": "Y",
    "EFFFL": "Y",
    "PARAMCD": "NPTOT",
    "PARAM": "NPI-X Total (9) Score",
    "PARAMN": 1,
    "AVAL": 3,
    "BASE": 4,
    "CHG": -1,
    "AVISIT": "Week 4",
    "AVISITN": 4,
    "ADT": "2013-08-24",
    "ADY": 30,
    "ABLFL": null,
    "ANL01FL": "Y",
    "DTYPE": null
  },
  {
    "STUDYID": "CDISCPILOT01",
    "USUBJID": "01-702-1082",
    "SITEID": "702",
    "SITEGR1": "900",
    "TRT01P": "Xanomeline Low Dose",
    "TRT01A": "Xanomeline Low Dose",
    "TRT01PN": 1,
    "TRTP": "Xanomeline Low Dose",
    "TRTA": "Xanomeline Low Dose",
    "TRTSDT": "2013-07-26",
    "TRTEDT": "2013-10-13",
    "SAFFL": "Y",
    "ITTFL": "Y",
    "EFFFL": "Y",
    "PARAMCD": "NPTOT",
    "PARAM": "NPI-X Total (9) Score",
    "PARAMN": 1,
    "AVAL": 3,
    "BASE": 4,
    "CHG": -1,
    "AVISIT": "Week 8",
    "AVISITN": 8,
    "ADT": "2013-09-06",
    "ADY": 43,
    "ABLFL": null,
    "ANL01FL": "Y",
    "DTYPE": null
  },
  {
    "STUDYID": "CDISCPILOT01",
    "USUBJID": "01-702-1082",
    "SITEID": "702",
    "SITEGR1": "900",
    "TRT01P": "Xanomeline Low Dose",
    "TRT01A": "Xanomeline Low Dose",
    "TRT01PN": 1,
    "TRTP": "Xanomeline Low Dose",
    "TRTA": "Xanomeline Low Dose",
    "TRTSDT": "2013-07-26",
    "TRTEDT": "2013-10-13",
    "SAFFL": "Y",
    "ITTFL": "Y",
    "EFFFL": "Y",
    "PARAMCD": "NPTOT",
    "PARAM": "NPI-X Total (9) Score",
    "PARAMN": 1,
    "AVAL": 2,
    "BASE": 4,
    "CHG": -2,
    "AVISIT": "Week 12",
    "AVISITN": 12,
    "ADT": "2013-09-28",
    "ADY": 65,
    "ABLFL": null,
    "ANL01FL": "Y",
    "DTYPE": null
  },
  {
    "STUDYID": "CDISCPILOT01",
    "USUBJID": "01-702-1082",
    "SITEID": "702",
    "SITEGR1": "900",
    "TRT01P": "Xanomeline Low Dose",
    "TRT01A": "Xanomeline Low Dose",
    "TRT01PN": 1,
    "TRTP": "Xanomeline Low Dose",
    "TRTA": "Xanomeline Low Dose",
    "TRTSDT": "2013-07-26",
    "TRTEDT": "2013-10-13",
    "SAFFL": "Y",
    "ITTFL": "Y",
    "EFFFL": "Y",
    "PARAMCD": "NPTOT",
    "PARAM": "NPI-X Total (9) Score",
    "PARAMN": 1,
    "AVAL": 5,
    "BASE": 4,
    "CHG": 1,
    "AVISIT": "Week 16",
    "AVISITN": 16,
    "ADT": "2013-11-17",
    "ADY": 115,
    "ABLFL": null,
    "ANL01FL": "Y",
    "DTYPE": null
  },
  {
    "STUDYID": "CDISCPILOT01",
    "USUBJID": "01-703-1042",
    "SITEID": "703",
    "SITEGR1": "703",
    "TRT01P": "Placebo",
    "TRT01A": "Placebo",
    "TRT01PN": 0,
    "TRTP": "Placebo",
    "TRTA": "Placebo",
    "TRTSDT": "2013-03-02",
    "TRTEDT": "2013-08-31",
    "SAFFL": "Y",
    "ITTFL": "Y",
    "EFFFL": "Y",
    "PARAMCD": "NPTOT",
    "PARAM": "NPI-X Total (9) Score",
    "PARAMN": 1,
    "AVAL": 3,
    "BASE": 3,
    "CHG": null,
    "AVISIT": "Baseline",
    "AVISITN": 0,
    "ADT": "2013-03-02",
    "ADY": 1,
    "ABLFL": "Y",
    "ANL01FL": "Y",
    "DTYPE": null
  },
  {
    "STUDYID": "CDISCPILOT01",
    "USUBJID": "01-703-1042",
    "SITEID": "703",
    "SITEGR1": "703",
    "TRT01P": "Placebo",
    "TRT01A": "Placebo",
    "TRT01PN": 0,
    "TRTP": "Placebo",
    "TRTA": "Placebo",
    "TRTSDT": "2013-03-02",
    "TRTEDT": "2013-08-31",
    "SAFFL": "Y",
    "ITTFL": "Y",
    "EFFFL": "Y",
    "PARAMCD": "NPTOT",
    "PARAM": "NPI-X Total (9) Score",
    "PARAMN": 1,
    "AVAL": 4,
    "BASE": 3,
    "CHG": 1,
    "AVISIT": "Week 4",
    "AVISITN": 4,
    "ADT": "2013-03-28",
    "ADY": 27,
    "ABLFL": null,
    "ANL01FL": "Y",
    "DTYPE": null
  },
  {
    "STUDYID": "CDISCPILOT01",
    "USUBJID": "01-703-1042",
    "SITEID": "703",
    "SITEGR1": "703",
    "TRT01P": "Placebo",
    "TRT01A": "Placebo",
    "TRT01PN": 0,
    "TRTP": "Placebo",
    "TRTA": "Placebo",
    "TRTSDT": "2013-03-02",
    "TRTEDT": "2013-08-31",
    "SAFFL": "Y",
    "ITTFL": "Y",
    "EFFFL": "Y",
    "PARAMCD": "NPTOT",
    "PARAM": "NPI-X Total (9) Score",
    "PARAMN": 1,
    "AVAL": 3,
    "BASE": 3,
    "CHG": 0,
    "AVISIT": "Week 8",
    "AVISITN": 8,
    "ADT": "2013-04-13",
    "ADY": 43,
    "ABLFL": null,
    "ANL01FL": "Y",
    "DTYPE": null
  },
  {
    "STUDYID": "CDISCPILOT01",
    "USUBJID": "01-703-1042",
    "SITEID": "703",
    "SITEGR1": "703",
    "TRT01P": "Placebo",
    "TRT01A": "Placebo",
    "TRT01PN": 0,
    "TRTP": "Placebo",
    "TRTA": "Placebo",
    "TRTSDT": "2013-03-02",
    "TRTEDT": "2013-08-31",
    "SAFFL": "Y",
    "ITTFL": "Y",
    "EFFFL": "Y",
    "PARAMCD": "NPTOT",
    "PARAM": "NPI-X Total (9) Score",
    "PARAMN": 1,
    "AVAL": 6,
    "BASE": 3,
    "CHG": 3,
    "AVISIT": "Week 16",
    "AVISITN": 16,
    "ADT": "2013-05-25",
    "ADY": 85,
    "ABLFL": null,
    "ANL01FL": "Y",
    "DTYPE": null
  },
  {
    "STUDYID": "CDISCPILOT01",
    "USUBJID": "01-703-1042",
    "SITEID": "703",
    "SITEGR1": "703",
    "TRT01P": "Placebo",
    "TRT01A": "Placebo",
    "TRT01PN": 0,
    "TRTP": "Placebo",
    "TRTA": "Placebo",
    "TRTSDT": "2013-03-02",
    "TRTEDT": "2013-08-31",
    "SAFFL": "Y",
    "ITTFL": "Y",
    "EFFFL": "Y",
    "PARAMCD": "NPTOT",
    "PARAM": "NPI-X Total (9) Score",
    "PARAMN": 1,
    "AVAL": 4,
    "BASE": 3,
    "CHG": 1,
    "AVISIT": "Week 20",
    "AVISITN": 20,
    "ADT": "2013-06-22",
    "ADY": 113,
    "ABLFL": null,
    "ANL01FL": "Y",
    "DTYPE": null
  },
  {
    "STUDYID": "CDISCPILOT01",
    "USUBJID": "01-703-1042",
    "SITEID": "703",
    "SITEGR1": "703",
    "TRT01P": "Placebo",
    "TRT01A": "Placebo",
    "TRT01PN": 0,
    "TRTP": "Placebo",
    "TRTA": "Placebo",
    "TRTSDT": "2013-03-02",
    "TRTEDT": "2013-08-31",
    "SAFFL": "Y",
    "ITTFL": "Y",
    "EFFFL": "Y",
    "PARAMCD": "NPTOT",
    "PARAM": "NPI-X Total (9) Score",
    "PARAMN": 1,
    "AVAL": 4,
    "BASE": 3,
    "CHG": 1,
    "AVISIT": "Week 24",
    "AVISITN": 24,
    "ADT": "2013-07-20",
    "ADY": 141,
    "ABLFL": null,
    "ANL01FL": "Y",
    "DTYPE": null
  },
  {
    "STUDYID": "CDISCPILOT01",
    "USUBJID": "01-703-1076",
    "SITEID": "703",
    "SITEGR1": "703",
    "TRT01P": "Xanomeline High Dose",
    "TRT01A": "Xanomeline High Dose",
    "TRT01PN": 2,
    "TRTP": "Xanomeline High Dose",
    "TRTA": "Xanomeline High Dose",
    "TRTSDT": "2013-10-25",
    "TRTEDT": "2013-12-24",
    "SAFFL": "Y",
    "ITTFL": "Y",
    "EFFFL": "Y",
    "PARAMCD": "NPTOT",
    "PARAM": "NPI-X Total (9) Score",
    "PARAMN": 1,
    "AVAL": 4,
    "BASE": 4,
    "CHG": null,
    "AVISIT": "Baseline",
    "AVISITN": 0,
    "ADT": "2013-10-25",
    "ADY": 1,
    "ABLFL": "Y",
    "ANL01FL": "Y",
    "DTYPE": null
  },
  {
    "STUDYID": "CDISCPILOT01",
    "USUBJID": "01-703-1076",
    "SITEID": "703",
    "SITEGR1": "703",
    "TRT01P": "Xanomeline High Dose",
    "TRT01A": "Xanomeline High Dose",
    "TRT01PN": 2,
    "TRTP": "Xanomeline High Dose",
    "TRTA": "Xanomeline High Dose",
    "TRTSDT": "2013-10-25",
    "TRTEDT": "2013-12-24",
    "SAFFL": "Y",
    "ITTFL": "Y",
    "EFFFL": "Y",
    "PARAMCD": "NPTOT",
    "PARAM": "NPI-X Total (9) Score",
    "PARAMN": 1,
    "AVAL": 3,
    "BASE": 4,
    "CHG": -1,
    "AVISIT": "Week 4",
    "AVISITN": 4,
    "ADT": "2013-11-20",
    "ADY": 27,
    "ABLFL": null,
    "ANL01FL": "Y",
    "DTYPE": null
  },
  {
    "STUDYID": "CDISCPILOT01",
    "USUBJID": "01-703-1076",
    "SITEID": "703",
    "SITEGR1": "703",
    "TRT01P": "Xanomeline High Dose",
    "TRT01A": "Xanomeline High Dose",
    "TRT01PN": 2,
    "TRTP": "Xanomeline High Dose",
    "TRTA": "Xanomeline High Dose",
    "TRTSDT": "2013-10-25",
    "TRTEDT": "2013-12-24",
    "SAFFL": "Y",
    "ITTFL": "Y",
    "EFFFL": "Y",
    "PARAMCD": "NPTOT",
    "PARAM": "NPI-X Total (9) Score",
    "PARAMN": 1,
    "AVAL": 5,
    "BASE": 4,
    "CHG": 1,
    "AVISIT": "Week 8",
    "AVISITN": 8,
    "ADT": "2013-12-04",
    "ADY": 41,
    "ABLFL": null,
    "ANL01FL": "Y",
    "DTYPE": null
  },
  {
    "STUDYID": "CDISCPILOT01",
    "USUBJID": "01-703-1076",
    "SITEID": "703",
    "SITEGR1": "703",
    "TRT01P": "Xanomeline High Dose",
    "TRT01A": "Xanomeline High Dose",
    "TRT01PN": 2,
    "TRTP": "Xanomeline High Dose",
    "TRTA": "Xanomeline High Dose",
    "TRTSDT": "2013-10-25",
    "TRTEDT": "2013-12-24",
    "SAFFL": "Y",
    "ITTFL": "Y",
    "EFFFL": "Y",
    "PARAMCD": "NPTOT",
    "PARAM": "NPI-X Total (9) Score",
    "PARAMN": 1,
    "AVAL": 2,
    "BASE": 4,
    "CHG": -2,
    "AVISIT": "Week 12",
    "AVISITN": 12,
    "ADT": "2013-12-17",
    "ADY": 54,
    "ABLFL": null,
    "ANL01FL": "Y",
    "DTYPE": null
  },
  {
    "STUDYID": "CDISCPILOT01",
    "USUBJID": "01-703-1076",
    "SITEID": "703",
    "SITEGR1": "703",
    "TRT01P": "Xanomeline High Dose",
    "TRT01A": "Xanomeline High Dose",
    "TRT01PN": 2,
    "TRTP": "Xanomeline High Dose",
    "TRTA": "Xanomeline High Dose",
    "TRTSDT": "2013-10-25",
    "TRTEDT": "2013-12-24",
    "SAFFL": "Y",
    "ITTFL": "Y",
    "EFFFL": "Y",
    "PARAMCD": "NPTOT",
    "PARAM": "NPI-X Total (9) Score",
    "PARAMN": 1,
    "AVAL": 2,
    "BASE": 4,
    "CHG": -2,
    "AVISIT": "Week 16",
    "AVISITN": 16,
    "ADT": "2013-12-24",
    "ADY": 61,
    "ABLFL": null,
    "ANL01FL": "Y",
    "DTYPE": null
  },
  {
    "STUDYID": "CDISCPILOT01",
    "USUBJID": "01-703-1086",
    "SITEID": "703",
    "SITEGR1": "703",
    "TRT01P": "Xanomeline Low Dose",
    "TRT01A": "Xanomeline Low Dose",
    "TRT01PN": 1,
    "TRTP": "Xanomeline Low Dose",
    "TRTA": "Xanomeline Low Dose",
    "TRTSDT": "2012-09-02",
    "TRTEDT": "2012-12-04",
    "SAFFL": "Y",
    "ITTFL": "Y",
    "EFFFL": "Y",
    "PARAMCD": "NPTOT",
    "PARAM": "NPI-X Total (9) Score",
    "PARAMN": 1,
    "AVAL": 9,
    "BASE": 9,
    "CHG": null,
    "AVISIT": "Baseline",
    "AVISITN": 0,
    "ADT": "2012-09-02",
    "ADY": 1,
    "ABLFL": "Y",
    "ANL01FL": "Y",
    "DTYPE": null
  },
  {
    "STUDYID": "CDISCPILOT01",
    "USUBJID": "01-703-1086",
    "SITEID": "703",
    "SITEGR1": "703",
    "TRT01P": "Xanomeline Low Dose",
    "TRT01A": "Xanomeline Low Dose",
    "TRT01PN": 1,
    "TRTP": "Xanomeline Low Dose",
    "TRTA": "Xanomeline Low Dose",
    "TRTSDT": "2012-09-02",
    "TRTEDT": "2012-12-04",
    "SAFFL": "Y",
    "ITTFL": "Y",
    "EFFFL": "Y",
    "PARAMCD": "NPTOT",
    "PARAM": "NPI-X Total (9) Score",
    "PARAMN": 1,
    "AVAL": 3,
    "BASE": 9,
    "CHG": -6,
    "AVISIT": "Week 8",
    "AVISITN": 8,
    "ADT": "2012-10-13",
    "ADY": 42,
    "ABLFL": null,
    "ANL01FL": "Y",
    "DTYPE": null
  },
  {
    "STUDYID": "CDISCPILOT01",
    "USUBJID": "01-703-1086",
    "SITEID": "703",
    "SITEGR1": "703",
    "TRT01P": "Xanomeline Low Dose",
    "TRT01A": "Xanomeline Low Dose",
    "TRT01PN": 1,
    "TRTP": "Xanomeline Low Dose",
    "TRTA": "Xanomeline Low Dose",
    "TRTSDT": "2012-09-02",
    "TRTEDT": "2012-12-04",
    "SAFFL": "Y",
    "ITTFL": "Y",
    "EFFFL": "Y",
    "PARAMCD": "NPTOT",
    "PARAM": "NPI-X Total (9) Score",
    "PARAMN": 1,
    "AVAL": 10,
    "BASE": 9,
    "CHG": 1,
    "AVISIT": "Week 12",
    "AVISITN": 12,
    "ADT": "2012-10-27",
    "ADY": 56,
    "ABLFL": null,
    "ANL01FL": "Y",
    "DTYPE": null
  },
  {
    "STUDYID": "CDISCPILOT01",
    "USUBJID": "01-703-1086",
    "SITEID": "703",
    "SITEGR1": "703",
    "TRT01P": "Xanomeline Low Dose",
    "TRT01A": "Xanomeline Low Dose",
    "TRT01PN": 1,
    "TRTP": "Xanomeline Low Dose",
    "TRTA": "Xanomeline Low Dose",
    "TRTSDT": "2012-09-02",
    "TRTEDT": "2012-12-04",
    "SAFFL": "Y",
    "ITTFL": "Y",
    "EFFFL": "Y",
    "PARAMCD": "NPTOT",
    "PARAM": "NPI-X Total (9) Score",
    "PARAMN": 1,
    "AVAL": 8,
    "BASE": 9,
    "CHG": -1,
    "AVISIT": "Week 16",
    "AVISITN": 16,
    "ADT": "2012-11-27",
    "ADY": 87,
    "ABLFL": null,
    "ANL01FL": "Y",
    "DTYPE": null
  },
  {
    "STUDYID": "CDISCPILOT01",
    "USUBJID": "01-703-1086",
    "SITEID": "703",
    "SITEGR1": "703",
    "TRT01P": "Xanomeline Low Dose",
    "TRT01A": "Xanomeline Low Dose",
    "TRT01PN": 1,
    "TRTP": "Xanomeline Low Dose",
    "TRTA": "Xanomeline Low Dose",
    "TRTSDT": "2012-09-02",
    "TRTEDT": "2012-12-04",
    "SAFFL": "Y",
    "ITTFL": "Y",
    "EFFFL": "Y",
    "PARAMCD": "NPTOT",
    "PARAM": "NPI-X Total (9) Score",
    "PARAMN": 1,
    "AVAL": 9,
    "BASE": 9,
    "CHG": 0,
    "AVISIT": "Week 20",
    "AVISITN": 20,
    "ADT": "2012-12-24",
    "ADY": 114,
    "ABLFL": null,
    "ANL01FL": "Y",
    "DTYPE": null
  },
  {
    "STUDYID": "CDISCPILOT01",
    "USUBJID": "01-703-1096",
    "SITEID": "703",
    "SITEGR1": "703",
    "TRT01P": "Placebo",
    "TRT01A": "Placebo",
    "TRT01PN": 0,
    "TRTP": "Placebo",
    "TRTA": "Placebo",
    "TRTSDT": "2013-01-25",
    "TRTEDT": "2013-03-16",
    "SAFFL": "Y",
    "ITTFL": "Y",
    "EFFFL": "N",
    "PARAMCD": "NPTOT",
    "PARAM": "NPI-X Total (9) Score",
    "PARAMN": 1,
    "AVAL": 13,
    "BASE": 13,
    "CHG": null,
    "AVISIT": "Baseline",
    "AVISITN": 0,
    "ADT": "2013-01-25",
    "ADY": 1,
    "ABLFL": "Y",
    "ANL01FL": "Y",
    "DTYPE": null
  },
  {
    "STUDYID": "CDISCPILOT01",
    "USUBJID": "01-703-1096",
    "SITEID": "703",
    "SITEGR1": "703",
    "TRT01P": "Placebo",
    "TRT01A": "Placebo",
    "TRT01PN": 0,
    "TRTP": "Placebo",
    "TRTA": "Placebo",
    "TRTSDT": "2013-01-25",
    "TRTEDT": "2013-03-16",
    "SAFFL": "Y",
    "ITTFL": "Y",
    "EFFFL": "N",
    "PARAMCD": "NPTOT",
    "PARAM": "NPI-X Total (9) Score",
    "PARAMN": 1,
    "AVAL": 13,
    "BASE": 13,
    "CHG": 0,
    "AVISIT": "Week 4",
    "AVISITN": 4,
    "ADT": "2013-02-23",
    "ADY": 30,
    "ABLFL": null,
    "ANL01FL": "Y",
    "DTYPE": null
  },
  {
    "STUDYID": "CDISCPILOT01",
    "USUBJID": "01-703-1100",
    "SITEID": "703",
    "SITEGR1": "703",
    "TRT01P": "Placebo",
    "TRT01A": "Placebo",
    "TRT01PN": 0,
    "TRTP": "Placebo",
    "TRTA": "Placebo",
    "TRTSDT": "2013-03-13",
    "TRTEDT": "2013-09-14",
    "SAFFL": "Y",
    "ITTFL": "Y",
    "EFFFL": "Y",
    "PARAMCD": "NPTOT",
    "PARAM": "NPI-X Total (9) Score",
    "PARAMN": 1,
    "AVAL": 38,
    "BASE": 38,
    "CHG": null,
    "AVISIT": "Baseline",
    "AVISITN": 0,
    "ADT": "2013-03-13",
    "ADY": 1,
    "ABLFL": "Y",
    "ANL01FL": "Y",
    "DTYPE": null
  },
  {
    "STUDYID": "CDISCPILOT01",
    "USUBJID": "01-703-1100",
    "SITEID": "703",
    "SITEGR1": "703",
    "TRT01P": "Placebo",
    "TRT01A": "Placebo",
    "TRT01PN": 0,
    "TRTP": "Placebo",
    "TRTA": "Placebo",
    "TRTSDT": "2013-03-13",
    "TRTEDT": "2013-09-14",
    "SAFFL": "Y",
    "ITTFL": "Y",
    "EFFFL": "Y",
    "PARAMCD": "NPTOT",
    "PARAM": "NPI-X Total (9) Score",
    "PARAMN": 1,
    "AVAL": 31,
    "BASE": 38,
    "CHG": -7,
    "AVISIT": "Week 4",
    "AVISITN": 4,
    "ADT": "2013-04-12",
    "ADY": 31,
    "ABLFL": null,
    "ANL01FL": "Y",
    "DTYPE": null
  },
  {
    "STUDYID": "CDISCPILOT01",
    "USUBJID": "01-703-1100",
    "SITEID": "703",
    "SITEGR1": "703",
    "TRT01P": "Placebo",
    "TRT01A": "Placebo",
    "TRT01PN": 0,
    "TRTP": "Placebo",
    "TRTA": "Placebo",
    "TRTSDT": "2013-03-13",
    "TRTEDT": "2013-09-14",
    "SAFFL": "Y",
    "ITTFL": "Y",
    "EFFFL": "Y",
    "PARAMCD": "NPTOT",
    "PARAM": "NPI-X Total (9) Score",
    "PARAMN": 1,
    "AVAL": 29,
    "BASE": 38,
    "CHG": -9,
    "AVISIT": "Week 8",
    "AVISITN": 8,
    "ADT": "2013-04-24",
    "ADY": 43,
    "ABLFL": null,
    "ANL01FL": "Y",
    "DTYPE": null
  },
  {
    "STUDYID": "CDISCPILOT01",
    "USUBJID": "01-703-1100",
    "SITEID": "703",
    "SITEGR1": "703",
    "TRT01P": "Placebo",
    "TRT01A": "Placebo",
    "TRT01PN": 0,
    "TRTP": "Placebo",
    "TRTA": "Placebo",
    "TRTSDT": "2013-03-13",
    "TRTEDT": "2013-09-14",
    "SAFFL": "Y",
    "ITTFL": "Y",
    "EFFFL": "Y",
    "PARAMCD": "NPTOT",
    "PARAM": "NPI-X Total (9) Score",
    "PARAMN": 1,
    "AVAL": 18,
    "BASE": 38,
    "CHG": -20,
    "AVISIT": "Week 12",
    "AVISITN": 12,
    "ADT": "2013-05-08",
    "ADY": 57,
    "ABLFL": null,
    "ANL01FL": "Y",
    "DTYPE": null
  },
  {
    "STUDYID": "CDISCPILOT01",
    "USUBJID": "01-703-1100",
    "SITEID": "703",
    "SITEGR1": "703",
    "TRT01P": "Placebo",
    "TRT01A": "Placebo",
    "TRT01PN": 0,
    "TRTP": "Placebo",
    "TRTA": "Placebo",
    "TRTSDT": "2013-03-13",
    "TRTEDT": "2013-09-14",
    "SAFFL": "Y",
    "ITTFL": "Y",
    "EFFFL": "Y",
    "PARAMCD": "NPTOT",
    "PARAM": "NPI-X Total (9) Score",
    "PARAMN": 1,
    "AVAL": 25,
    "BASE": 38,
    "CHG": -13,
    "AVISIT": "Week 16",
    "AVISITN": 16,
    "ADT": "2013-06-05",
    "ADY": 85,
    "ABLFL": null,
    "ANL01FL": "Y",
    "DTYPE": null
  },
  {
    "STUDYID": "CDISCPILOT01",
    "USUBJID": "01-703-1100",
    "SITEID": "703",
    "SITEGR1": "703",
    "TRT01P": "Placebo",
    "TRT01A": "Placebo",
    "TRT01PN": 0,
    "TRTP": "Placebo",
    "TRTA": "Placebo",
    "TRTSDT": "2013-03-13",
    "TRTEDT": "2013-09-14",
    "SAFFL": "Y",
    "ITTFL": "Y",
    "EFFFL": "Y",
    "PARAMCD": "NPTOT",
    "PARAM": "NPI-X Total (9) Score",
    "PARAMN": 1,
    "AVAL": 37,
    "BASE": 38,
    "CHG": -1,
    "AVISIT": "Week 20",
    "AVISITN": 20,
    "ADT": "2013-07-03",
    "ADY": 113,
    "ABLFL": null,
    "ANL01FL": "Y",
    "DTYPE": null
  },
  {
    "STUDYID": "CDISCPILOT01",
    "USUBJID": "01-703-1100",
    "SITEID": "703",
    "SITEGR1": "703",
    "TRT01P": "Placebo",
    "TRT01A": "Placebo",
    "TRT01PN": 0,
    "TRTP": "Placebo",
    "TRTA": "Placebo",
    "TRTSDT": "2013-03-13",
    "TRTEDT": "2013-09-14",
    "SAFFL": "Y",
    "ITTFL": "Y",
    "EFFFL": "Y",
    "PARAMCD": "NPTOT",
    "PARAM": "NPI-X Total (9) Score",
    "PARAMN": 1,
    "AVAL": 22,
    "BASE": 38,
    "CHG": -16,
    "AVISIT": "Week 24",
    "AVISITN": 24,
    "ADT": "2013-07-31",
    "ADY": 141,
    "ABLFL": null,
    "ANL01FL": "Y",
    "DTYPE": null
  },
  {
    "STUDYID": "CDISCPILOT01",
    "USUBJID": "01-703-1119",
    "SITEID": "703",
    "SITEGR1": "703",
    "TRT01P": "Xanomeline Low Dose",
    "TRT01A": "Xanomeline Low Dose",
    "TRT01PN": 1,
    "TRTP": "Xanomeline Low Dose",
    "TRTA": "Xanomeline Low Dose",
    "TRTSDT": "2013-02-20",
    "TRTEDT": "2013-06-13",
    "SAFFL": "Y",
    "ITTFL": "Y",
    "EFFFL": "Y",
    "PARAMCD": "NPTOT",
    "PARAM": "NPI-X Total (9) Score",
    "PARAMN": 1,
    "AVAL": 8,
    "BASE": 8,
    "CHG": null,
    "AVISIT": "Baseline",
    "AVISITN": 0,
    "ADT": "2013-02-20",
    "ADY": 1,
    "ABLFL": "Y",
    "ANL01FL": "Y",
    "DTYPE": null
  },
  {
    "STUDYID": "CDISCPILOT01",
    "USUBJID": "01-703-1119",
    "SITEID": "703",
    "SITEGR1": "703",
    "TRT01P": "Xanomeline Low Dose",
    "TRT01A": "Xanomeline Low Dose",
    "TRT01PN": 1,
    "TRTP": "Xanomeline Low Dose",
    "TRTA": "Xanomeline Low Dose",
    "TRTSDT": "2013-02-20",
    "TRTEDT": "2013-06-13",
    "SAFFL": "Y",
    "ITTFL": "Y",
    "EFFFL": "Y",
    "PARAMCD": "NPTOT",
    "PARAM": "NPI-X Total (9) Score",
    "PARAMN": 1,
    "AVAL": 7,
    "BASE": 8,
    "CHG": -1,
    "AVISIT": "Week 4",
    "AVISITN": 4,
    "ADT": "2013-03-21",
    "ADY": 30,
    "ABLFL": null,
    "ANL01FL": "Y",
    "DTYPE": null
  },
  {
    "STUDYID": "CDISCPILOT01",
    "USUBJID": "01-703-1119",
    "SITEID": "703",
    "SITEGR1": "703",
    "TRT01P": "Xanomeline Low Dose",
    "TRT01A": "Xanomeline Low Dose",
    "TRT01PN": 1,
    "TRTP": "Xanomeline Low Dose",
    "TRTA": "Xanomeline Low Dose",
    "TRTSDT": "2013-02-20",
    "TRTEDT": "2013-06-13",
    "SAFFL": "Y",
    "ITTFL": "Y",
    "EFFFL": "Y",
    "PARAMCD": "NPTOT",
    "PARAM": "NPI-X Total (9) Score",
    "PARAMN": 1,
    "AVAL": 8,
    "BASE": 8,
    "CHG": 0,
    "AVISIT": "Week 8",
    "AVISITN": 8,
    "ADT": "2013-04-04",
    "ADY": 44,
    "ABLFL": null,
    "ANL01FL": "Y",
    "DTYPE": null
  },
  {
    "STUDYID": "CDISCPILOT01",
    "USUBJID": "01-703-1119",
    "SITEID": "703",
    "SITEGR1": "703",
    "TRT01P": "Xanomeline Low Dose",
    "TRT01A": "Xanomeline Low Dose",
    "TRT01PN": 1,
    "TRTP": "Xanomeline Low Dose",
    "TRTA": "Xanomeline Low Dose",
    "TRTSDT": "2013-02-20",
    "TRTEDT": "2013-06-13",
    "SAFFL": "Y",
    "ITTFL": "Y",
    "EFFFL": "Y",
    "PARAMCD": "NPTOT",
    "PARAM": "NPI-X Total (9) Score",
    "PARAMN": 1,
    "AVAL": 8,
    "BASE": 8,
    "CHG": 0,
    "AVISIT": "Week 12",
    "AVISITN": 12,
    "ADT": "2013-04-19",
    "ADY": 59,
    "ABLFL": null,
    "ANL01FL": "Y",
    "DTYPE": null
  },
  {
    "STUDYID": "CDISCPILOT01",
    "USUBJID": "01-703-1119",
    "SITEID": "703",
    "SITEGR1": "703",
    "TRT01P": "Xanomeline Low Dose",
    "TRT01A": "Xanomeline Low Dose",
    "TRT01PN": 1,
    "TRTP": "Xanomeline Low Dose",
    "TRTA": "Xanomeline Low Dose",
    "TRTSDT": "2013-02-20",
    "TRTEDT": "2013-06-13",
    "SAFFL": "Y",
    "ITTFL": "Y",
    "EFFFL": "Y",
    "PARAMCD": "NPTOT",
    "PARAM": "NPI-X Total (9) Score",
    "PARAMN": 1,
    "AVAL": 5,
    "BASE": 8,
    "CHG": -3,
    "AVISIT": "Week 16",
    "AVISITN": 16,
    "ADT": "2013-05-17",
    "ADY": 87,
    "ABLFL": null,
    "ANL01FL": "Y",
    "DTYPE": null
  },
  {
    "STUDYID": "CDISCPILOT01",
    "USUBJID": "01-703-1119",
    "SITEID": "703",
    "SITEGR1": "703",
    "TRT01P": "Xanomeline Low Dose",
    "TRT01A": "Xanomeline Low Dose",
    "TRT01PN": 1,
    "TRTP": "Xanomeline Low Dose",
    "TRTA": "Xanomeline Low Dose",
    "TRTSDT": "2013-02-20",
    "TRTEDT": "2013-06-13",
    "SAFFL": "Y",
    "ITTFL": "Y",
    "EFFFL": "Y",
    "PARAMCD": "NPTOT",
    "PARAM": "NPI-X Total (9) Score",
    "PARAMN": 1,
    "AVAL": 14,
    "BASE": 8,
    "CHG": 6,
    "AVISIT": "Week 20",
    "AVISITN": 20,
    "ADT": "2013-06-13",
    "ADY": 114,
    "ABLFL": null,
    "ANL01FL": "Y",
    "DTYPE": null
  },
  {
    "STUDYID": "CDISCPILOT01",
    "USUBJID": "01-703-1175",
    "SITEID": "703",
    "SITEGR1": "703",
    "TRT01P": "Placebo",
    "TRT01A": "Placebo",
    "TRT01PN": 0,
    "TRTP": "Placebo",
    "TRTA": "Placebo",
    "TRTSDT": "2013-12-20",
    "TRTEDT": "2013-12-26",
    "SAFFL": "Y",
    "ITTFL": "Y",
    "EFFFL": "Y",
    "PARAMCD": "NPTOT",
    "PARAM": "NPI-X Total (9) Score",
    "PARAMN": 1,
    "AVAL": 2,
    "BASE": 2,
    "CHG": null,
    "AVISIT": "Baseline",
    "AVISITN": 0,
    "ADT": "2013-12-20",
    "ADY": 1,
    "ABLFL": "Y",
    "ANL01FL": "Y",
    "DTYPE": null
  },
  {
    "STUDYID": "CDISCPILOT01",
    "USUBJID": "01-703-1182",
    "SITEID": "703",
    "SITEGR1": "703",
    "TRT01P": "Xanomeline Low Dose",
    "TRT01A": "Xanomeline Low Dose",
    "TRT01PN": 1,
    "TRTP": "Xanomeline Low Dose",
    "TRTA": "Xanomeline Low Dose",
    "TRTSDT": "2013-10-17",
    "TRTEDT": "2013-12-11",
    "SAFFL": "Y",
    "ITTFL": "Y",
    "EFFFL": "Y",
    "PARAMCD": "NPTOT",
    "PARAM": "NPI-X Total (9) Score",
    "PARAMN": 1,
    "AVAL": 12,
    "BASE": 12,
    "CHG": null,
    "AVISIT": "Baseline",
    "AVISITN": 0,
    "ADT": "2013-10-17",
    "ADY": 1,
    "ABLFL": "Y",
    "ANL01FL": "Y",
    "DTYPE": null
  },
  {
    "STUDYID": "CDISCPILOT01",
    "USUBJID": "01-703-1182",
    "SITEID": "703",
    "SITEGR1": "703",
    "TRT01P": "Xanomeline Low Dose",
    "TRT01A": "Xanomeline Low Dose",
    "TRT01PN": 1,
    "TRTP": "Xanomeline Low Dose",
    "TRTA": "Xanomeline Low Dose",
    "TRTSDT": "2013-10-17",
    "TRTEDT": "2013-12-11",
    "SAFFL": "Y",
    "ITTFL": "Y",
    "EFFFL": "Y",
    "PARAMCD": "NPTOT",
    "PARAM": "NPI-X Total (9) Score",
    "PARAMN": 1,
    "AVAL": 10,
    "BASE": 12,
    "CHG": -2,
    "AVISIT": "Week 4",
    "AVISITN": 4,
    "ADT": "2013-11-19",
    "ADY": 34,
    "ABLFL": null,
    "ANL01FL": "Y",
    "DTYPE": null
  },
  {
    "STUDYID": "CDISCPILOT01",
    "USUBJID": "01-703-1182",
    "SITEID": "703",
    "SITEGR1": "703",
    "TRT01P": "Xanomeline Low Dose",
    "TRT01A": "Xanomeline Low Dose",
    "TRT01PN": 1,
    "TRTP": "Xanomeline Low Dose",
    "TRTA": "Xanomeline Low Dose",
    "TRTSDT": "2013-10-17",
    "TRTEDT": "2013-12-11",
    "SAFFL": "Y",
    "ITTFL": "Y",
    "EFFFL": "Y",
    "PARAMCD": "NPTOT",
    "PARAM": "NPI-X Total (9) Score",
    "PARAMN": 1,
    "AVAL": 9,
    "BASE": 12,
    "CHG": -3,
    "AVISIT": "Week 8",
    "AVISITN": 8,
    "ADT": "2013-11-28",
    "ADY": 43,
    "ABLFL": null,
    "ANL01FL": "Y",
    "DTYPE": null
  },
  {
    "STUDYID": "CDISCPILOT01",
    "USUBJID": "01-703-1182",
    "SITEID": "703",
    "SITEGR1": "703",
    "TRT01P": "Xanomeline Low Dose",
    "TRT01A": "Xanomeline Low Dose",
    "TRT01PN": 1,
    "TRTP": "Xanomeline Low Dose",
    "TRTA": "Xanomeline Low Dose",
    "TRTSDT": "2013-10-17",
    "TRTEDT": "2013-12-11",
    "SAFFL": "Y",
    "ITTFL": "Y",
    "EFFFL": "Y",
    "PARAMCD": "NPTOT",
    "PARAM": "NPI-X Total (9) Score",
    "PARAMN": 1,
    "AVAL": 11,
    "BASE": 12,
    "CHG": -1,
    "AVISIT": "Week 12",
    "AVISITN": 12,
    "ADT": "2013-12-12",
    "ADY": 57,
    "ABLFL": null,
    "ANL01FL": "Y",
    "DTYPE": null
  },
  {
    "STUDYID": "CDISCPILOT01",
    "USUBJID": "01-703-1197",
    "SITEID": "703",
    "SITEGR1": "703",
    "TRT01P": "Xanomeline Low Dose",
    "TRT01A": "Xanomeline Low Dose",
    "TRT01PN": 1,
    "TRTP": "Xanomeline Low Dose",
    "TRTA": "Xanomeline Low Dose",
    "TRTSDT": "2013-06-16",
    "TRTEDT": "2013-06-29",
    "SAFFL": "Y",
    "ITTFL": "Y",
    "EFFFL": "Y",
    "PARAMCD": "NPTOT",
    "PARAM": "NPI-X Total (9) Score",
    "PARAMN": 1,
    "AVAL": 11,
    "BASE": 11,
    "CHG": null,
    "AVISIT": "Baseline",
    "AVISITN": 0,
    "ADT": "2013-06-16",
    "ADY": 1,
    "ABLFL": "Y",
    "ANL01FL": "Y",
    "DTYPE": null
  },
  {
    "STUDYID": "CDISCPILOT01",
    "USUBJID": "01-703-1210",
    "SITEID": "703",
    "SITEGR1": "703",
    "TRT01P": "Placebo",
    "TRT01A": "Placebo",
    "TRT01PN": 0,
    "TRTP": "Placebo",
    "TRTA": "Placebo",
    "TRTSDT": "2013-03-16",
    "TRTEDT": "2013-09-06",
    "SAFFL": "Y",
    "ITTFL": "Y",
    "EFFFL": "Y",
    "PARAMCD": "NPTOT",
    "PARAM": "NPI-X Total (9) Score",
    "PARAMN": 1,
    "AVAL": 0,
    "BASE": 0,
    "CHG": null,
    "AVISIT": "Baseline",
    "AVISITN": 0,
    "ADT": "2013-03-16",
    "ADY": 1,
    "ABLFL": "Y",
    "ANL01FL": "Y",
    "DTYPE": null
  },
  {
    "STUDYID": "CDISCPILOT01",
    "USUBJID": "01-703-1210",
    "SITEID": "703",
    "SITEGR1": "703",
    "TRT01P": "Placebo",
    "TRT01A": "Placebo",
    "TRT01PN": 0,
    "TRTP": "Placebo",
    "TRTA": "Placebo",
    "TRTSDT": "2013-03-16",
    "TRTEDT": "2013-09-06",
    "SAFFL": "Y",
    "ITTFL": "Y",
    "EFFFL": "Y",
    "PARAMCD": "NPTOT",
    "PARAM": "NPI-X Total (9) Score",
    "PARAMN": 1,
    "AVAL": 0,
    "BASE": 0,
    "CHG": 0,
    "AVISIT": "Week 4",
    "AVISITN": 4,
    "ADT": "2013-04-12",
    "ADY": 28,
    "ABLFL": null,
    "ANL01FL": "Y",
    "DTYPE": null
  },
  {
    "STUDYID": "CDISCPILOT01",
    "USUBJID": "01-703-1210",
    "SITEID": "703",
    "SITEGR1": "703",
    "TRT01P": "Placebo",
    "TRT01A": "Placebo",
    "TRT01PN": 0,
    "TRTP": "Placebo",
    "TRTA": "Placebo",
    "TRTSDT": "2013-03-16",
    "TRTEDT": "2013-09-06",
    "SAFFL": "Y",
    "ITTFL": "Y",
    "EFFFL": "Y",
    "PARAMCD": "NPTOT",
    "PARAM": "NPI-X Total (9) Score",
    "PARAMN": 1,
    "AVAL": 0,
    "BASE": 0,
    "CHG": 0,
    "AVISIT": "Week 8",
    "AVISITN": 8,
    "ADT": "2013-04-28",
    "ADY": 44,
    "ABLFL": null,
    "ANL01FL": "Y",
    "DTYPE": null
  },
  {
    "STUDYID": "CDISCPILOT01",
    "USUBJID": "01-703-1210",
    "SITEID": "703",
    "SITEGR1": "703",
    "TRT01P": "Placebo",
    "TRT01A": "Placebo",
    "TRT01PN": 0,
    "TRTP": "Placebo",
    "TRTA": "Placebo",
    "TRTSDT": "2013-03-16",
    "TRTEDT": "2013-09-06",
    "SAFFL": "Y",
    "ITTFL": "Y",
    "EFFFL": "Y",
    "PARAMCD": "NPTOT",
    "PARAM": "NPI-X Total (9) Score",
    "PARAMN": 1,
    "AVAL": 4,
    "BASE": 0,
    "CHG": 4,
    "AVISIT": "Week 12",
    "AVISITN": 12,
    "ADT": "2013-05-10",
    "ADY": 56,
    "ABLFL": null,
    "ANL01FL": "Y",
    "DTYPE": null
  },
  {
    "STUDYID": "CDISCPILOT01",
    "USUBJID": "01-703-1210",
    "SITEID": "703",
    "SITEGR1": "703",
    "TRT01P": "Placebo",
    "TRT01A": "Placebo",
    "TRT01PN": 0,
    "TRTP": "Placebo",
    "TRTA": "Placebo",
    "TRTSDT": "2013-03-16",
    "TRTEDT": "2013-09-06",
    "SAFFL": "Y",
    "ITTFL": "Y",
    "EFFFL": "Y",
    "PARAMCD": "NPTOT",
    "PARAM": "NPI-X Total (9) Score",
    "PARAMN": 1,
    "AVAL": 4,
    "BASE": 0,
    "CHG": 4,
    "AVISIT": "Week 16",
    "AVISITN": 16,
    "ADT": "2013-06-07",
    "ADY": 84,
    "ABLFL": null,
    "ANL01FL": "Y",
    "DTYPE": null
  },
  {
    "STUDYID": "CDISCPILOT01",
    "USUBJID": "01-703-1210",
    "SITEID": "703",
    "SITEGR1": "703",
    "TRT01P": "Placebo",
    "TRT01A": "Placebo",
    "TRT01PN": 0,
    "TRTP": "Placebo",
    "TRTA": "Placebo",
    "TRTSDT": "2013-03-16",
    "TRTEDT": "2013-09-06",
    "SAFFL": "Y",
    "ITTFL": "Y",
    "EFFFL": "Y",
    "PARAMCD": "NPTOT",
    "PARAM": "NPI-X Total (9) Score",
    "PARAMN": 1,
    "AVAL": 4,
    "BASE": 0,
    "CHG": 4,
    "AVISIT": "Week 20",
    "AVISITN": 20,
    "ADT": "2013-07-05",
    "ADY": 112,
    "ABLFL": null,
    "ANL01FL": "Y",
    "DTYPE": null
  },
  {
    "STUDYID": "CDISCPILOT01",
    "USUBJID": "01-703-1210",
    "SITEID": "703",
    "SITEGR1": "703",
    "TRT01P": "Placebo",
    "TRT01A": "Placebo",
    "TRT01PN": 0,
    "TRTP": "Placebo",
    "TRTA": "Placebo",
    "TRTSDT": "2013-03-16",
    "TRTEDT": "2013-09-06",
    "SAFFL": "Y",
    "ITTFL": "Y",
    "EFFFL": "Y",
    "PARAMCD": "NPTOT",
    "PARAM": "NPI-X Total (9) Score",
    "PARAMN": 1,
    "AVAL": 4,
    "BASE": 0,
    "CHG": 4,
    "AVISIT": "Week 24",
    "AVISITN": 24,
    "ADT": "2013-07-27",
    "ADY": 134,
    "ABLFL": null,
    "ANL01FL": "Y",
    "DTYPE": null
  },
  {
    "STUDYID": "CDISCPILOT01",
    "USUBJID": "01-703-1258",
    "SITEID": "703",
    "SITEGR1": "703",
    "TRT01P": "Xanomeline High Dose",
    "TRT01A": "Xanomeline High Dose",
    "TRT01PN": 2,
    "TRTP": "Xanomeline High Dose",
    "TRTA": "Xanomeline High Dose",
    "TRTSDT": "2012-07-20",
    "TRTEDT": "2013-01-11",
    "SAFFL": "Y",
    "ITTFL": "Y",
    "EFFFL": "Y",
    "PARAMCD": "NPTOT",
    "PARAM": "NPI-X Total (9) Score",
    "PARAMN": 1,
    "AVAL": 13,
    "BASE": 13,
    "CHG": null,
    "AVISIT": "Baseline",
    "AVISITN": 0,
    "ADT": "2012-07-20",
    "ADY": 1,
    "ABLFL": "Y",
    "ANL01FL": "Y",
    "DTYPE": null
  },
  {
    "STUDYID": "CDISCPILOT01",
    "USUBJID": "01-703-1258",
    "SITEID": "703",
    "SITEGR1": "703",
    "TRT01P": "Xanomeline High Dose",
    "TRT01A": "Xanomeline High Dose",
    "TRT01PN": 2,
    "TRTP": "Xanomeline High Dose",
    "TRTA": "Xanomeline High Dose",
    "TRTSDT": "2012-07-20",
    "TRTEDT": "2013-01-11",
    "SAFFL": "Y",
    "ITTFL": "Y",
    "EFFFL": "Y",
    "PARAMCD": "NPTOT",
    "PARAM": "NPI-X Total (9) Score",
    "PARAMN": 1,
    "AVAL": 11,
    "BASE": 13,
    "CHG": -2,
    "AVISIT": "Week 4",
    "AVISITN": 4,
    "ADT": "2012-08-17",
    "ADY": 29,
    "ABLFL": null,
    "ANL01FL": "Y",
    "DTYPE": null
  },
  {
    "STUDYID": "CDISCPILOT01",
    "USUBJID": "01-703-1258",
    "SITEID": "703",
    "SITEGR1": "703",
    "TRT01P": "Xanomeline High Dose",
    "TRT01A": "Xanomeline High Dose",
    "TRT01PN": 2,
    "TRTP": "Xanomeline High Dose",
    "TRTA": "Xanomeline High Dose",
    "TRTSDT": "2012-07-20",
    "TRTEDT": "2013-01-11",
    "SAFFL": "Y",
    "ITTFL": "Y",
    "EFFFL": "Y",
    "PARAMCD": "NPTOT",
    "PARAM": "NPI-X Total (9) Score",
    "PARAMN": 1,
    "AVAL": 6,
    "BASE": 13,
    "CHG": -7,
    "AVISIT": "Week 8",
    "AVISITN": 8,
    "ADT": "2012-09-04",
    "ADY": 47,
    "ABLFL": null,
    "ANL01FL": "Y",
    "DTYPE": null
  },
  {
    "STUDYID": "CDISCPILOT01",
    "USUBJID": "01-703-1258",
    "SITEID": "703",
    "SITEGR1": "703",
    "TRT01P": "Xanomeline High Dose",
    "TRT01A": "Xanomeline High Dose",
    "TRT01PN": 2,
    "TRTP": "Xanomeline High Dose",
    "TRTA": "Xanomeline High Dose",
    "TRTSDT": "2012-07-20",
    "TRTEDT": "2013-01-11",
    "SAFFL": "Y",
    "ITTFL": "Y",
    "EFFFL": "Y",
    "PARAMCD": "NPTOT",
    "PARAM": "NPI-X Total (9) Score",
    "PARAMN": 1,
    "AVAL": 16,
    "BASE": 13,
    "CHG": 3,
    "AVISIT": "Week 12",
    "AVISITN": 12,
    "ADT": "2012-09-14",
    "ADY": 57,
    "ABLFL": null,
    "ANL01FL": "Y",
    "DTYPE": null
  },
  {
    "STUDYID": "CDISCPILOT01",
    "USUBJID": "01-703-1258",
    "SITEID": "703",
    "SITEGR1": "703",
    "TRT01P": "Xanomeline High Dose",
    "TRT01A": "Xanomeline High Dose",
    "TRT01PN": 2,
    "TRTP": "Xanomeline High Dose",
    "TRTA": "Xanomeline High Dose",
    "TRTSDT": "2012-07-20",
    "TRTEDT": "2013-01-11",
    "SAFFL": "Y",
    "ITTFL": "Y",
    "EFFFL": "Y",
    "PARAMCD": "NPTOT",
    "PARAM": "NPI-X Total (9) Score",
    "PARAMN": 1,
    "AVAL": 14,
    "BASE": 13,
    "CHG": 1,
    "AVISIT": "Week 16",
    "AVISITN": 16,
    "ADT": "2012-10-09",
    "ADY": 82,
    "ABLFL": null,
    "ANL01FL": "Y",
    "DTYPE": null
  },
  {
    "STUDYID": "CDISCPILOT01",
    "USUBJID": "01-703-1258",
    "SITEID": "703",
    "SITEGR1": "703",
    "TRT01P": "Xanomeline High Dose",
    "TRT01A": "Xanomeline High Dose",
    "TRT01PN": 2,
    "TRTP": "Xanomeline High Dose",
    "TRTA": "Xanomeline High Dose",
    "TRTSDT": "2012-07-20",
    "TRTEDT": "2013-01-11",
    "SAFFL": "Y",
    "ITTFL": "Y",
    "EFFFL": "Y",
    "PARAMCD": "NPTOT",
    "PARAM": "NPI-X Total (9) Score",
    "PARAMN": 1,
    "AVAL": 27,
    "BASE": 13,
    "CHG": 14,
    "AVISIT": "Week 20",
    "AVISITN": 20,
    "ADT": "2012-11-05",
    "ADY": 109,
    "ABLFL": null,
    "ANL01FL": "Y",
    "DTYPE": null
  },
  {
    "STUDYID": "CDISCPILOT01",
    "USUBJID": "01-703-1258",
    "SITEID": "703",
    "SITEGR1": "703",
    "TRT01P": "Xanomeline High Dose",
    "TRT01A": "Xanomeline High Dose",
    "TRT01PN": 2,
    "TRTP": "Xanomeline High Dose",
    "TRTA": "Xanomeline High Dose",
    "TRTSDT": "2012-07-20",
    "TRTEDT": "2013-01-11",
    "SAFFL": "Y",
    "ITTFL": "Y",
    "EFFFL": "Y",
    "PARAMCD": "NPTOT",
    "PARAM": "NPI-X Total (9) Score",
    "PARAMN": 1,
    "AVAL": 18,
    "BASE": 13,
    "CHG": 5,
    "AVISIT": "Week 24",
    "AVISITN": 24,
    "ADT": "2012-12-03",
    "ADY": 137,
    "ABLFL": null,
    "ANL01FL": "Y",
    "DTYPE": null
  },
  {
    "STUDYID": "CDISCPILOT01",
    "USUBJID": "01-703-1279",
    "SITEID": "703",
    "SITEGR1": "703",
    "TRT01P": "Xanomeline Low Dose",
    "TRT01A": "Xanomeline Low Dose",
    "TRT01PN": 1,
    "TRTP": "Xanomeline Low Dose",
    "TRTA": "Xanomeline Low Dose",
    "TRTSDT": "2013-05-13",
    "TRTEDT": "2013-06-03",
    "SAFFL": "Y",
    "ITTFL": "Y",
    "EFFFL": "N",
    "PARAMCD": "NPTOT",
    "PARAM": "NPI-X Total (9) Score",
    "PARAMN": 1,
    "AVAL": 24,
    "BASE": 24,
    "CHG": null,
    "AVISIT": "Baseline",
    "AVISITN": 0,
    "ADT": "2013-05-13",
    "ADY": 1,
    "ABLFL": "Y",
    "ANL01FL": "Y",
    "DTYPE": null
  },
  {
    "STUDYID": "CDISCPILOT01",
    "USUBJID": "01-703-1295",
    "SITEID": "703",
    "SITEGR1": "703",
    "TRT01P": "Xanomeline High Dose",
    "TRT01A": "Xanomeline High Dose",
    "TRT01PN": 2,
    "TRTP": "Xanomeline High Dose",
    "TRTA": "Xanomeline High Dose",
    "TRTSDT": "2013-11-21",
    "TRTEDT": "2014-04-19",
    "SAFFL": "Y",
    "ITTFL": "Y",
    "EFFFL": "Y",
    "PARAMCD": "NPTOT",
    "PARAM": "NPI-X Total (9) Score",
    "PARAMN": 1,
    "AVAL": 16,
    "BASE": 16,
    "CHG": null,
    "AVISIT": "Baseline",
    "AVISITN": 0,
    "ADT": "2013-11-21",
    "ADY": 1,
    "ABLFL": "Y",
    "ANL01FL": "Y",
    "DTYPE": null
  },
  {
    "STUDYID": "CDISCPILOT01",
    "USUBJID": "01-703-1295",
    "SITEID": "703",
    "SITEGR1": "703",
    "TRT01P": "Xanomeline High Dose",
    "TRT01A": "Xanomeline High Dose",
    "TRT01PN": 2,
    "TRTP": "Xanomeline High Dose",
    "TRTA": "Xanomeline High Dose",
    "TRTSDT": "2013-11-21",
    "TRTEDT": "2014-04-19",
    "SAFFL": "Y",
    "ITTFL": "Y",
    "EFFFL": "Y",
    "PARAMCD": "NPTOT",
    "PARAM": "NPI-X Total (9) Score",
    "PARAMN": 1,
    "AVAL": 20,
    "BASE": 16,
    "CHG": 4,
    "AVISIT": "Week 4",
    "AVISITN": 4,
    "ADT": "2013-12-18",
    "ADY": 28,
    "ABLFL": null,
    "ANL01FL": "Y",
    "DTYPE": null
  },
  {
    "STUDYID": "CDISCPILOT01",
    "USUBJID": "01-703-1295",
    "SITEID": "703",
    "SITEGR1": "703",
    "TRT01P": "Xanomeline High Dose",
    "TRT01A": "Xanomeline High Dose",
    "TRT01PN": 2,
    "TRTP": "Xanomeline High Dose",
    "TRTA": "Xanomeline High Dose",
    "TRTSDT": "2013-11-21",
    "TRTEDT": "2014-04-19",
    "SAFFL": "Y",
    "ITTFL": "Y",
    "EFFFL": "Y",
    "PARAMCD": "NPTOT",
    "PARAM": "NPI-X Total (9) Score",
    "PARAMN": 1,
    "AVAL": 22,
    "BASE": 16,
    "CHG": 6,
    "AVISIT": "Week 8",
    "AVISITN": 8,
    "ADT": "2014-01-01",
    "ADY": 42,
    "ABLFL": null,
    "ANL01FL": "Y",
    "DTYPE": null
  },
  {
    "STUDYID": "CDISCPILOT01",
    "USUBJID": "01-703-1295",
    "SITEID": "703",
    "SITEGR1": "703",
    "TRT01P": "Xanomeline High Dose",
    "TRT01A": "Xanomeline High Dose",
    "TRT01PN": 2,
    "TRTP": "Xanomeline High Dose",
    "TRTA": "Xanomeline High Dose",
    "TRTSDT": "2013-11-21",
    "TRTEDT": "2014-04-19",
    "SAFFL": "Y",
    "ITTFL": "Y",
    "EFFFL": "Y",
    "PARAMCD": "NPTOT",
    "PARAM": "NPI-X Total (9) Score",
    "PARAMN": 1,
    "AVAL": 15,
    "BASE": 16,
    "CHG": -1,
    "AVISIT": "Week 12",
    "AVISITN": 12,
    "ADT": "2014-01-15",
    "ADY": 56,
    "ABLFL": null,
    "ANL01FL": "Y",
    "DTYPE": null
  },
  {
    "STUDYID": "CDISCPILOT01",
    "USUBJID": "01-703-1295",
    "SITEID": "703",
    "SITEGR1": "703",
    "TRT01P": "Xanomeline High Dose",
    "TRT01A": "Xanomeline High Dose",
    "TRT01PN": 2,
    "TRTP": "Xanomeline High Dose",
    "TRTA": "Xanomeline High Dose",
    "TRTSDT": "2013-11-21",
    "TRTEDT": "2014-04-19",
    "SAFFL": "Y",
    "ITTFL": "Y",
    "EFFFL": "Y",
    "PARAMCD": "NPTOT",
    "PARAM": "NPI-X Total (9) Score",
    "PARAMN": 1,
    "AVAL": 17,
    "BASE": 16,
    "CHG": 1,
    "AVISIT": "Week 16",
    "AVISITN": 16,
    "ADT": "2014-02-18",
    "ADY": 90,
    "ABLFL": null,
    "ANL01FL": "Y",
    "DTYPE": null
  },
  {
    "STUDYID": "CDISCPILOT01",
    "USUBJID": "01-703-1295",
    "SITEID": "703",
    "SITEGR1": "703",
    "TRT01P": "Xanomeline High Dose",
    "TRT01A": "Xanomeline High Dose",
    "TRT01PN": 2,
    "TRTP": "Xanomeline High Dose",
    "TRTA": "Xanomeline High Dose",
    "TRTSDT": "2013-11-21",
    "TRTEDT": "2014-04-19",
    "SAFFL": "Y",
    "ITTFL": "Y",
    "EFFFL": "Y",
    "PARAMCD": "NPTOT",
    "PARAM": "NPI-X Total (9) Score",
    "PARAMN": 1,
    "AVAL": 15,
    "BASE": 16,
    "CHG": -1,
    "AVISIT": "Week 20",
    "AVISITN": 20,
    "ADT": "2014-03-13",
    "ADY": 113,
    "ABLFL": null,
    "ANL01FL": "Y",
    "DTYPE": null
  },
  {
    "STUDYID": "CDISCPILOT01",
    "USUBJID": "01-703-1299",
    "SITEID": "703",
    "SITEGR1": "703",
    "TRT01P": "Placebo",
    "TRT01A": "Placebo",
    "TRT01PN": 0,
    "TRTP": "Placebo",
    "TRTA": "Placebo",
    "TRTSDT": "2012-09-12",
    "TRTEDT": "2013-03-13",
    "SAFFL": "Y",
    "ITTFL": "Y",
    "EFFFL": "Y",
    "PARAMCD": "NPTOT",
    "PARAM": "NPI-X Total (9) Score",
    "PARAMN": 1,
    "AVAL": 7,
    "BASE": 7,
    "CHG": null,
    "AVISIT": "Baseline",
    "AVISITN": 0,
    "ADT": "2012-09-12",
    "ADY": 1,
    "ABLFL": "Y",
    "ANL01FL": "Y",
    "DTYPE": null
  },
  {
    "STUDYID": "CDISCPILOT01",
    "USUBJID": "01-703-1299",
    "SITEID": "703",
    "SITEGR1": "703",
    "TRT01P": "Placebo",
    "TRT01A": "Placebo",
    "TRT01PN": 0,
    "TRTP": "Placebo",
    "TRTA": "Placebo",
    "TRTSDT": "2012-09-12",
    "TRTEDT": "2013-03-13",
    "SAFFL": "Y",
    "ITTFL": "Y",
    "EFFFL": "Y",
    "PARAMCD": "NPTOT",
    "PARAM": "NPI-X Total (9) Score",
    "PARAMN": 1,
    "AVAL": 7,
    "BASE": 7,
    "CHG": 0,
    "AVISIT": "Week 4",
    "AVISITN": 4,
    "ADT": "2012-10-10",
    "ADY": 29,
    "ABLFL": null,
    "ANL01FL": "Y",
    "DTYPE": null
  },
  {
    "STUDYID": "CDISCPILOT01",
    "USUBJID": "01-703-1299",
    "SITEID": "703",
    "SITEGR1": "703",
    "TRT01P": "Placebo",
    "TRT01A": "Placebo",
    "TRT01PN": 0,
    "TRTP": "Placebo",
    "TRTA": "Placebo",
    "TRTSDT": "2012-09-12",
    "TRTEDT": "2013-03-13",
    "SAFFL": "Y",
    "ITTFL": "Y",
    "EFFFL": "Y",
    "PARAMCD": "NPTOT",
    "PARAM": "NPI-X Total (9) Score",
    "PARAMN": 1,
    "AVAL": 5,
    "BASE": 7,
    "CHG": -2,
    "AVISIT": "Week 8",
    "AVISITN": 8,
    "ADT": "2012-10-24",
    "ADY": 43,
    "ABLFL": null,
    "ANL01FL": "Y",
    "DTYPE": null
  },
  {
    "STUDYID": "CDISCPILOT01",
    "USUBJID": "01-703-1299",
    "SITEID": "703",
    "SITEGR1": "703",
    "TRT01P": "Placebo",
    "TRT01A": "Placebo",
    "TRT01PN": 0,
    "TRTP": "Placebo",
    "TRTA": "Placebo",
    "TRTSDT": "2012-09-12",
    "TRTEDT": "2013-03-13",
    "SAFFL": "Y",
    "ITTFL": "Y",
    "EFFFL": "Y",
    "PARAMCD": "NPTOT",
    "PARAM": "NPI-X Total (9) Score",
    "PARAMN": 1,
    "AVAL": 12,
    "BASE": 7,
    "CHG": 5,
    "AVISIT": "Week 12",
    "AVISITN": 12,
    "ADT": "2012-11-07",
    "ADY": 57,
    "ABLFL": null,
    "ANL01FL": "Y",
    "DTYPE": null
  },
  {
    "STUDYID": "CDISCPILOT01",
    "USUBJID": "01-703-1299",
    "SITEID": "703",
    "SITEGR1": "703",
    "TRT01P": "Placebo",
    "TRT01A": "Placebo",
    "TRT01PN": 0,
    "TRTP": "Placebo",
    "TRTA": "Placebo",
    "TRTSDT": "2012-09-12",
    "TRTEDT": "2013-03-13",
    "SAFFL": "Y",
    "ITTFL": "Y",
    "EFFFL": "Y",
    "PARAMCD": "NPTOT",
    "PARAM": "NPI-X Total (9) Score",
    "PARAMN": 1,
    "AVAL": 13,
    "BASE": 7,
    "CHG": 6,
    "AVISIT": "Week 16",
    "AVISITN": 16,
    "ADT": "2012-12-05",
    "ADY": 85,
    "ABLFL": null,
    "ANL01FL": "Y",
    "DTYPE": null
  },
  {
    "STUDYID": "CDISCPILOT01",
    "USUBJID": "01-703-1299",
    "SITEID": "703",
    "SITEGR1": "703",
    "TRT01P": "Placebo",
    "TRT01A": "Placebo",
    "TRT01PN": 0,
    "TRTP": "Placebo",
    "TRTA": "Placebo",
    "TRTSDT": "2012-09-12",
    "TRTEDT": "2013-03-13",
    "SAFFL": "Y",
    "ITTFL": "Y",
    "EFFFL": "Y",
    "PARAMCD": "NPTOT",
    "PARAM": "NPI-X Total (9) Score",
    "PARAMN": 1,
    "AVAL": 6,
    "BASE": 7,
    "CHG": -1,
    "AVISIT": "Week 20",
    "AVISITN": 20,
    "ADT": "2013-01-02",
    "ADY": 113,
    "ABLFL": null,
    "ANL01FL": "Y",
    "DTYPE": null
  },
  {
    "STUDYID": "CDISCPILOT01",
    "USUBJID": "01-703-1299",
    "SITEID": "703",
    "SITEGR1": "703",
    "TRT01P": "Placebo",
    "TRT01A": "Placebo",
    "TRT01PN": 0,
    "TRTP": "Placebo",
    "TRTA": "Placebo",
    "TRTSDT": "2012-09-12",
    "TRTEDT": "2013-03-13",
    "SAFFL": "Y",
    "ITTFL": "Y",
    "EFFFL": "Y",
    "PARAMCD": "NPTOT",
    "PARAM": "NPI-X Total (9) Score",
    "PARAMN": 1,
    "AVAL": 6,
    "BASE": 7,
    "CHG": -1,
    "AVISIT": "Week 24",
    "AVISITN": 24,
    "ADT": "2013-01-30",
    "ADY": 141,
    "ABLFL": null,
    "ANL01FL": "Y",
    "DTYPE": null
  },
  {
    "STUDYID": "CDISCPILOT01",
    "USUBJID": "01-703-1335",
    "SITEID": "703",
    "SITEGR1": "703",
    "TRT01P": "Xanomeline High Dose",
    "TRT01A": "Xanomeline High Dose",
    "TRT01PN": 2,
    "TRTP": "Xanomeline High Dose",
    "TRTA": "Xanomeline High Dose",
    "TRTSDT": "2014-03-17",
    "TRTEDT": "2014-05-07",
    "SAFFL": "Y",
    "ITTFL": "Y",
    "EFFFL": "Y",
    "PARAMCD": "NPTOT",
    "PARAM": "NPI-X Total (9) Score",
    "PARAMN": 1,
    "AVAL": 24,
    "BASE": 24,
    "CHG": null,
    "AVISIT": "Baseline",
    "AVISITN": 0,
    "ADT": "2014-03-17",
    "ADY": 1,
    "ABLFL": "Y",
    "ANL01FL": "Y",
    "DTYPE": null
  },
  {
    "STUDYID": "CDISCPILOT01",
    "USUBJID": "01-703-1335",
    "SITEID": "703",
    "SITEGR1": "703",
    "TRT01P": "Xanomeline High Dose",
    "TRT01A": "Xanomeline High Dose",
    "TRT01PN": 2,
    "TRTP": "Xanomeline High Dose",
    "TRTA": "Xanomeline High Dose",
    "TRTSDT": "2014-03-17",
    "TRTEDT": "2014-05-07",
    "SAFFL": "Y",
    "ITTFL": "Y",
    "EFFFL": "Y",
    "PARAMCD": "NPTOT",
    "PARAM": "NPI-X Total (9) Score",
    "PARAMN": 1,
    "AVAL": 24,
    "BASE": 24,
    "CHG": 0,
    "AVISIT": "Week 4",
    "AVISITN": 4,
    "ADT": "2014-04-13",
    "ADY": 28,
    "ABLFL": null,
    "ANL01FL": "Y",
    "DTYPE": null
  },
  {
    "STUDYID": "CDISCPILOT01",
    "USUBJID": "01-703-1335",
    "SITEID": "703",
    "SITEGR1": "703",
    "TRT01P": "Xanomeline High Dose",
    "TRT01A": "Xanomeline High Dose",
    "TRT01PN": 2,
    "TRTP": "Xanomeline High Dose",
    "TRTA": "Xanomeline High Dose",
    "TRTSDT": "2014-03-17",
    "TRTEDT": "2014-05-07",
    "SAFFL": "Y",
    "ITTFL": "Y",
    "EFFFL": "Y",
    "PARAMCD": "NPTOT",
    "PARAM": "NPI-X Total (9) Score",
    "PARAMN": 1,
    "AVAL": 10,
    "BASE": 24,
    "CHG": -14,
    "AVISIT": "Week 8",
    "AVISITN": 8,
    "ADT": "2014-05-24",
    "ADY": 69,
    "ABLFL": null,
    "ANL01FL": "Y",
    "DTYPE": null
  },
  {
    "STUDYID": "CDISCPILOT01",
    "USUBJID": "01-703-1379",
    "SITEID": "703",
    "SITEGR1": "703",
    "TRT01P": "Xanomeline Low Dose",
    "TRT01A": "Xanomeline Low Dose",
    "TRT01PN": 1,
    "TRTP": "Xanomeline Low Dose",
    "TRTA": "Xanomeline Low Dose",
    "TRTSDT": "2013-09-22",
    "TRTEDT": "2014-03-21",
    "SAFFL": "Y",
    "ITTFL": "Y",
    "EFFFL": "Y",
    "PARAMCD": "NPTOT",
    "PARAM": "NPI-X Total (9) Score",
    "PARAMN": 1,
    "AVAL": 26,
    "BASE": 26,
    "CHG": null,
    "AVISIT": "Baseline",
    "AVISITN": 0,
    "ADT": "2013-09-22",
    "ADY": 1,
    "ABLFL": "Y",
    "ANL01FL": "Y",
    "DTYPE": null
  },
  {
    "STUDYID": "CDISCPILOT01",
    "USUBJID": "01-703-1379",
    "SITEID": "703",
    "SITEGR1": "703",
    "TRT01P": "Xanomeline Low Dose",
    "TRT01A": "Xanomeline Low Dose",
    "TRT01PN": 1,
    "TRTP": "Xanomeline Low Dose",
    "TRTA": "Xanomeline Low Dose",
    "TRTSDT": "2013-09-22",
    "TRTEDT": "2014-03-21",
    "SAFFL": "Y",
    "ITTFL": "Y",
    "EFFFL": "Y",
    "PARAMCD": "NPTOT",
    "PARAM": "NPI-X Total (9) Score",
    "PARAMN": 1,
    "AVAL": 33,
    "BASE": 26,
    "CHG": 7,
    "AVISIT": "Week 4",
    "AVISITN": 4,
    "ADT": "2013-10-19",
    "ADY": 28,
    "ABLFL": null,
    "ANL01FL": "Y",
    "DTYPE": null
  },
  {
    "STUDYID": "CDISCPILOT01",
    "USUBJID": "01-703-1379",
    "SITEID": "703",
    "SITEGR1": "703",
    "TRT01P": "Xanomeline Low Dose",
    "TRT01A": "Xanomeline Low Dose",
    "TRT01PN": 1,
    "TRTP": "Xanomeline Low Dose",
    "TRTA": "Xanomeline Low Dose",
    "TRTSDT": "2013-09-22",
    "TRTEDT": "2014-03-21",
    "SAFFL": "Y",
    "ITTFL": "Y",
    "EFFFL": "Y",
    "PARAMCD": "NPTOT",
    "PARAM": "NPI-X Total (9) Score",
    "PARAMN": 1,
    "AVAL": 37,
    "BASE": 26,
    "CHG": 11,
    "AVISIT": "Week 8",
    "AVISITN": 8,
    "ADT": "2013-11-08",
    "ADY": 48,
    "ABLFL": null,
    "ANL01FL": "Y",
    "DTYPE": null
  },
  {
    "STUDYID": "CDISCPILOT01",
    "USUBJID": "01-703-1379",
    "SITEID": "703",
    "SITEGR1": "703",
    "TRT01P": "Xanomeline Low Dose",
    "TRT01A": "Xanomeline Low Dose",
    "TRT01PN": 1,
    "TRTP": "Xanomeline Low Dose",
    "TRTA": "Xanomeline Low Dose",
    "TRTSDT": "2013-09-22",
    "TRTEDT": "2014-03-21",
    "SAFFL": "Y",
    "ITTFL": "Y",
    "EFFFL": "Y",
    "PARAMCD": "NPTOT",
    "PARAM": "NPI-X Total (9) Score",
    "PARAMN": 1,
    "AVAL": 40,
    "BASE": 26,
    "CHG": 14,
    "AVISIT": "Week 12",
    "AVISITN": 12,
    "ADT": "2013-11-17",
    "ADY": 57,
    "ABLFL": null,
    "ANL01FL": "Y",
    "DTYPE": null
  },
  {
    "STUDYID": "CDISCPILOT01",
    "USUBJID": "01-703-1379",
    "SITEID": "703",
    "SITEGR1": "703",
    "TRT01P": "Xanomeline Low Dose",
    "TRT01A": "Xanomeline Low Dose",
    "TRT01PN": 1,
    "TRTP": "Xanomeline Low Dose",
    "TRTA": "Xanomeline Low Dose",
    "TRTSDT": "2013-09-22",
    "TRTEDT": "2014-03-21",
    "SAFFL": "Y",
    "ITTFL": "Y",
    "EFFFL": "Y",
    "PARAMCD": "NPTOT",
    "PARAM": "NPI-X Total (9) Score",
    "PARAMN": 1,
    "AVAL": 6,
    "BASE": 26,
    "CHG": -20,
    "AVISIT": "Week 16",
    "AVISITN": 16,
    "ADT": "2013-12-15",
    "ADY": 85,
    "ABLFL": null,
    "ANL01FL": "Y",
    "DTYPE": null
  },
  {
    "STUDYID": "CDISCPILOT01",
    "USUBJID": "01-703-1379",
    "SITEID": "703",
    "SITEGR1": "703",
    "TRT01P": "Xanomeline Low Dose",
    "TRT01A": "Xanomeline Low Dose",
    "TRT01PN": 1,
    "TRTP": "Xanomeline Low Dose",
    "TRTA": "Xanomeline Low Dose",
    "TRTSDT": "2013-09-22",
    "TRTEDT": "2014-03-21",
    "SAFFL": "Y",
    "ITTFL": "Y",
    "EFFFL": "Y",
    "PARAMCD": "NPTOT",
    "PARAM": "NPI-X Total (9) Score",
    "PARAMN": 1,
    "AVAL": 9,
    "BASE": 26,
    "CHG": -17,
    "AVISIT": "Week 20",
    "AVISITN": 20,
    "ADT": "2014-01-11",
    "ADY": 112,
    "ABLFL": null,
    "ANL01FL": "Y",
    "DTYPE": null
  },
  {
    "STUDYID": "CDISCPILOT01",
    "USUBJID": "01-703-1379",
    "SITEID": "703",
    "SITEGR1": "703",
    "TRT01P": "Xanomeline Low Dose",
    "TRT01A": "Xanomeline Low Dose",
    "TRT01PN": 1,
    "TRTP": "Xanomeline Low Dose",
    "TRTA": "Xanomeline Low Dose",
    "TRTSDT": "2013-09-22",
    "TRTEDT": "2014-03-21",
    "SAFFL": "Y",
    "ITTFL": "Y",
    "EFFFL": "Y",
    "PARAMCD": "NPTOT",
    "PARAM": "NPI-X Total (9) Score",
    "PARAMN": 1,
    "AVAL": 10,
    "BASE": 26,
    "CHG": -16,
    "AVISIT": "Week 24",
    "AVISITN": 24,
    "ADT": "2014-02-09",
    "ADY": 141,
    "ABLFL": null,
    "ANL01FL": "Y",
    "DTYPE": null
  },
  {
    "STUDYID": "CDISCPILOT01",
    "USUBJID": "01-703-1403",
    "SITEID": "703",
    "SITEGR1": "703",
    "TRT01P": "Xanomeline High Dose",
    "TRT01A": "Xanomeline Low Dose",
    "TRT01PN": 2,
    "TRTP": "Xanomeline High Dose",
    "TRTA": "Xanomeline Low Dose",
    "TRTSDT": "2012-12-12",
    "TRTEDT": "2012-12-13",
    "SAFFL": "Y",
    "ITTFL": "Y",
    "EFFFL": "N",
    "PARAMCD": "NPTOT",
    "PARAM": "NPI-X Total (9) Score",
    "PARAMN": 1,
    "AVAL": 1,
    "BASE": 1,
    "CHG": null,
    "AVISIT": "Baseline",
    "AVISITN": 0,
    "ADT": "2012-12-12",
    "ADY": 1,
    "ABLFL": "Y",
    "ANL01FL": "Y",
    "DTYPE": null
  },
  {
    "STUDYID": "CDISCPILOT01",
    "USUBJID": "01-703-1439",
    "SITEID": "703",
    "SITEGR1": "703",
    "TRT01P": "Xanomeline High Dose",
    "TRT01A": "Xanomeline High Dose",
    "TRT01PN": 2,
    "TRTP": "Xanomeline High Dose",
    "TRTA": "Xanomeline High Dose",
    "TRTSDT": "2014-03-12",
    "TRTEDT": "2014-09-11",
    "SAFFL": "Y",
    "ITTFL": "Y",
    "EFFFL": "Y",
    "PARAMCD": "NPTOT",
    "PARAM": "NPI-X Total (9) Score",
    "PARAMN": 1,
    "AVAL": 28,
    "BASE": 28,
    "CHG": null,
    "AVISIT": "Baseline",
    "AVISITN": 0,
    "ADT": "2014-03-12",
    "ADY": 1,
    "ABLFL": "Y",
    "ANL01FL": "Y",
    "DTYPE": null
  },
  {
    "STUDYID": "CDISCPILOT01",
    "USUBJID": "01-703-1439",
    "SITEID": "703",
    "SITEGR1": "703",
    "TRT01P": "Xanomeline High Dose",
    "TRT01A": "Xanomeline High Dose",
    "TRT01PN": 2,
    "TRTP": "Xanomeline High Dose",
    "TRTA": "Xanomeline High Dose",
    "TRTSDT": "2014-03-12",
    "TRTEDT": "2014-09-11",
    "SAFFL": "Y",
    "ITTFL": "Y",
    "EFFFL": "Y",
    "PARAMCD": "NPTOT",
    "PARAM": "NPI-X Total (9) Score",
    "PARAMN": 1,
    "AVAL": 23,
    "BASE": 28,
    "CHG": -5,
    "AVISIT": "Week 4",
    "AVISITN": 4,
    "ADT": "2014-04-08",
    "ADY": 28,
    "ABLFL": null,
    "ANL01FL": "Y",
    "DTYPE": null
  },
  {
    "STUDYID": "CDISCPILOT01",
    "USUBJID": "01-703-1439",
    "SITEID": "703",
    "SITEGR1": "703",
    "TRT01P": "Xanomeline High Dose",
    "TRT01A": "Xanomeline High Dose",
    "TRT01PN": 2,
    "TRTP": "Xanomeline High Dose",
    "TRTA": "Xanomeline High Dose",
    "TRTSDT": "2014-03-12",
    "TRTEDT": "2014-09-11",
    "SAFFL": "Y",
    "ITTFL": "Y",
    "EFFFL": "Y",
    "PARAMCD": "NPTOT",
    "PARAM": "NPI-X Total (9) Score",
    "PARAMN": 1,
    "AVAL": 19,
    "BASE": 28,
    "CHG": -9,
    "AVISIT": "Week 8",
    "AVISITN": 8,
    "ADT": "2014-04-21",
    "ADY": 41,
    "ABLFL": null,
    "ANL01FL": "Y",
    "DTYPE": null
  },
  {
    "STUDYID": "CDISCPILOT01",
    "USUBJID": "01-703-1439",
    "SITEID": "703",
    "SITEGR1": "703",
    "TRT01P": "Xanomeline High Dose",
    "TRT01A": "Xanomeline High Dose",
    "TRT01PN": 2,
    "TRTP": "Xanomeline High Dose",
    "TRTA": "Xanomeline High Dose",
    "TRTSDT": "2014-03-12",
    "TRTEDT": "2014-09-11",
    "SAFFL": "Y",
    "ITTFL": "Y",
    "EFFFL": "Y",
    "PARAMCD": "NPTOT",
    "PARAM": "NPI-X Total (9) Score",
    "PARAMN": 1,
    "AVAL": 28,
    "BASE": 28,
    "CHG": 0,
    "AVISIT": "Week 12",
    "AVISITN": 12,
    "ADT": "2014-05-05",
    "ADY": 55,
    "ABLFL": null,
    "ANL01FL": "Y",
    "DTYPE": null
  },
  {
    "STUDYID": "CDISCPILOT01",
    "USUBJID": "01-703-1439",
    "SITEID": "703",
    "SITEGR1": "703",
    "TRT01P": "Xanomeline High Dose",
    "TRT01A": "Xanomeline High Dose",
    "TRT01PN": 2,
    "TRTP": "Xanomeline High Dose",
    "TRTA": "Xanomeline High Dose",
    "TRTSDT": "2014-03-12",
    "TRTEDT": "2014-09-11",
    "SAFFL": "Y",
    "ITTFL": "Y",
    "EFFFL": "Y",
    "PARAMCD": "NPTOT",
    "PARAM": "NPI-X Total (9) Score",
    "PARAMN": 1,
    "AVAL": 31,
    "BASE": 28,
    "CHG": 3,
    "AVISIT": "Week 16",
    "AVISITN": 16,
    "ADT": "2014-06-02",
    "ADY": 83,
    "ABLFL": null,
    "ANL01FL": "Y",
    "DTYPE": null
  },
  {
    "STUDYID": "CDISCPILOT01",
    "USUBJID": "01-703-1439",
    "SITEID": "703",
    "SITEGR1": "703",
    "TRT01P": "Xanomeline High Dose",
    "TRT01A": "Xanomeline High Dose",
    "TRT01PN": 2,
    "TRTP": "Xanomeline High Dose",
    "TRTA": "Xanomeline High Dose",
    "TRTSDT": "2014-03-12",
    "TRTEDT": "2014-09-11",
    "SAFFL": "Y",
    "ITTFL": "Y",
    "EFFFL": "Y",
    "PARAMCD": "NPTOT",
    "PARAM": "NPI-X Total (9) Score",
    "PARAMN": 1,
    "AVAL": 14,
    "BASE": 28,
    "CHG": -14,
    "AVISIT": "Week 20",
    "AVISITN": 20,
    "ADT": "2014-06-30",
    "ADY": 111,
    "ABLFL": null,
    "ANL01FL": "Y",
    "DTYPE": null
  },
  {
    "STUDYID": "CDISCPILOT01",
    "USUBJID": "01-703-1439",
    "SITEID": "703",
    "SITEGR1": "703",
    "TRT01P": "Xanomeline High Dose",
    "TRT01A": "Xanomeline High Dose",
    "TRT01PN": 2,
    "TRTP": "Xanomeline High Dose",
    "TRTA": "Xanomeline High Dose",
    "TRTSDT": "2014-03-12",
    "TRTEDT": "2014-09-11",
    "SAFFL": "Y",
    "ITTFL": "Y",
    "EFFFL": "Y",
    "PARAMCD": "NPTOT",
    "PARAM": "NPI-X Total (9) Score",
    "PARAMN": 1,
    "AVAL": 16,
    "BASE": 28,
    "CHG": -12,
    "AVISIT": "Week 24",
    "AVISITN": 24,
    "ADT": "2014-07-29",
    "ADY": 140,
    "ABLFL": null,
    "ANL01FL": "Y",
    "DTYPE": null
  },
  {
    "STUDYID": "CDISCPILOT01",
    "USUBJID": "01-704-1008",
    "SITEID": "704",
    "SITEGR1": "704",
    "TRT01P": "Xanomeline High Dose",
    "TRT01A": "Xanomeline High Dose",
    "TRT01PN": 2,
    "TRTP": "Xanomeline High Dose",
    "TRTA": "Xanomeline High Dose",
    "TRTSDT": "2013-01-13",
    "TRTEDT": "2013-02-21",
    "SAFFL": "Y",
    "ITTFL": "Y",
    "EFFFL": "Y",
    "PARAMCD": "NPTOT",
    "PARAM": "NPI-X Total (9) Score",
    "PARAMN": 1,
    "AVAL": 2,
    "BASE": 2,
    "CHG": null,
    "AVISIT": "Baseline",
    "AVISITN": 0,
    "ADT": "2013-01-13",
    "ADY": 1,
    "ABLFL": "Y",
    "ANL01FL": "Y",
    "DTYPE": null
  },
  {
    "STUDYID": "CDISCPILOT01",
    "USUBJID": "01-704-1008",
    "SITEID": "704",
    "SITEGR1": "704",
    "TRT01P": "Xanomeline High Dose",
    "TRT01A": "Xanomeline High Dose",
    "TRT01PN": 2,
    "TRTP": "Xanomeline High Dose",
    "TRTA": "Xanomeline High Dose",
    "TRTSDT": "2013-01-13",
    "TRTEDT": "2013-02-21",
    "SAFFL": "Y",
    "ITTFL": "Y",
    "EFFFL": "Y",
    "PARAMCD": "NPTOT",
    "PARAM": "NPI-X Total (9) Score",
    "PARAMN": 1,
    "AVAL": 4,
    "BASE": 2,
    "CHG": 2,
    "AVISIT": "Week 4",
    "AVISITN": 4,
    "ADT": "2013-02-09",
    "ADY": 28,
    "ABLFL": null,
    "ANL01FL": "Y",
    "DTYPE": null
  },
  {
    "STUDYID": "CDISCPILOT01",
    "USUBJID": "01-704-1008",
    "SITEID": "704",
    "SITEGR1": "704",
    "TRT01P": "Xanomeline High Dose",
    "TRT01A": "Xanomeline High Dose",
    "TRT01PN": 2,
    "TRTP": "Xanomeline High Dose",
    "TRTA": "Xanomeline High Dose",
    "TRTSDT": "2013-01-13",
    "TRTEDT": "2013-02-21",
    "SAFFL": "Y",
    "ITTFL": "Y",
    "EFFFL": "Y",
    "PARAMCD": "NPTOT",
    "PARAM": "NPI-X Total (9) Score",
    "PARAMN": 1,
    "AVAL": 9,
    "BASE": 2,
    "CHG": 7,
    "AVISIT": "Week 8",
    "AVISITN": 8,
    "ADT": "2013-02-25",
    "ADY": 44,
    "ABLFL": null,
    "ANL01FL": "Y",
    "DTYPE": null
  },
  {
    "STUDYID": "CDISCPILOT01",
    "USUBJID": "01-704-1009",
    "SITEID": "704",
    "SITEGR1": "704",
    "TRT01P": "Xanomeline Low Dose",
    "TRT01A": "Xanomeline Low Dose",
    "TRT01PN": 1,
    "TRTP": "Xanomeline Low Dose",
    "TRTA": "Xanomeline Low Dose",
    "TRTSDT": "2013-08-27",
    "TRTEDT": "2013-09-25",
    "SAFFL": "Y",
    "ITTFL": "Y",
    "EFFFL": "Y",
    "PARAMCD": "NPTOT",
    "PARAM": "NPI-X Total (9) Score",
    "PARAMN": 1,
    "AVAL": 0,
    "BASE": 0,
    "CHG": null,
    "AVISIT": "Baseline",
    "AVISITN": 0,
    "ADT": "2013-08-27",
    "ADY": 1,
    "ABLFL": "Y",
    "ANL01FL": "Y",
    "DTYPE": null
  },
  {
    "STUDYID": "CDISCPILOT01",
    "USUBJID": "01-704-1009",
    "SITEID": "704",
    "SITEGR1": "704",
    "TRT01P": "Xanomeline Low Dose",
    "TRT01A": "Xanomeline Low Dose",
    "TRT01PN": 1,
    "TRTP": "Xanomeline Low Dose",
    "TRTA": "Xanomeline Low Dose",
    "TRTSDT": "2013-08-27",
    "TRTEDT": "2013-09-25",
    "SAFFL": "Y",
    "ITTFL": "Y",
    "EFFFL": "Y",
    "PARAMCD": "NPTOT",
    "PARAM": "NPI-X Total (9) Score",
    "PARAMN": 1,
    "AVAL": 0,
    "BASE": 0,
    "CHG": 0,
    "AVISIT": "Week 4",
    "AVISITN": 4,
    "ADT": "2013-10-02",
    "ADY": 37,
    "ABLFL": null,
    "ANL01FL": "Y",
    "DTYPE": null
  },
  {
    "STUDYID": "CDISCPILOT01",
    "USUBJID": "01-704-1010",
    "SITEID": "704",
    "SITEGR1": "704",
    "TRT01P": "Placebo",
    "TRT01A": "Placebo",
    "TRT01PN": 0,
    "TRTP": "Placebo",
    "TRTA": "Placebo",
    "TRTSDT": "2014-02-21",
    "TRTEDT": "2014-07-08",
    "SAFFL": "Y",
    "ITTFL": "Y",
    "EFFFL": "Y",
    "PARAMCD": "NPTOT",
    "PARAM": "NPI-X Total (9) Score",
    "PARAMN": 1,
    "AVAL": 6,
    "BASE": 6,
    "CHG": null,
    "AVISIT": "Baseline",
    "AVISITN": 0,
    "ADT": "2014-02-21",
    "ADY": 1,
    "ABLFL": "Y",
    "ANL01FL": "Y",
    "DTYPE": null
  },
  {
    "STUDYID": "CDISCPILOT01",
    "USUBJID": "01-704-1010",
    "SITEID": "704",
    "SITEGR1": "704",
    "TRT01P": "Placebo",
    "TRT01A": "Placebo",
    "TRT01PN": 0,
    "TRTP": "Placebo",
    "TRTA": "Placebo",
    "TRTSDT": "2014-02-21",
    "TRTEDT": "2014-07-08",
    "SAFFL": "Y",
    "ITTFL": "Y",
    "EFFFL": "Y",
    "PARAMCD": "NPTOT",
    "PARAM": "NPI-X Total (9) Score",
    "PARAMN": 1,
    "AVAL": 2,
    "BASE": 6,
    "CHG": -4,
    "AVISIT": "Week 4",
    "AVISITN": 4,
    "ADT": "2014-03-23",
    "ADY": 31,
    "ABLFL": null,
    "ANL01FL": "Y",
    "DTYPE": null
  },
  {
    "STUDYID": "CDISCPILOT01",
    "USUBJID": "01-704-1010",
    "SITEID": "704",
    "SITEGR1": "704",
    "TRT01P": "Placebo",
    "TRT01A": "Placebo",
    "TRT01PN": 0,
    "TRTP": "Placebo",
    "TRTA": "Placebo",
    "TRTSDT": "2014-02-21",
    "TRTEDT": "2014-07-08",
    "SAFFL": "Y",
    "ITTFL": "Y",
    "EFFFL": "Y",
    "PARAMCD": "NPTOT",
    "PARAM": "NPI-X Total (9) Score",
    "PARAMN": 1,
    "AVAL": 3,
    "BASE": 6,
    "CHG": -3,
    "AVISIT": "Week 8",
    "AVISITN": 8,
    "ADT": "2014-04-11",
    "ADY": 50,
    "ABLFL": null,
    "ANL01FL": "Y",
    "DTYPE": null
  },
  {
    "STUDYID": "CDISCPILOT01",
    "USUBJID": "01-704-1010",
    "SITEID": "704",
    "SITEGR1": "704",
    "TRT01P": "Placebo",
    "TRT01A": "Placebo",
    "TRT01PN": 0,
    "TRTP": "Placebo",
    "TRTA": "Placebo",
    "TRTSDT": "2014-02-21",
    "TRTEDT": "2014-07-08",
    "SAFFL": "Y",
    "ITTFL": "Y",
    "EFFFL": "Y",
    "PARAMCD": "NPTOT",
    "PARAM": "NPI-X Total (9) Score",
    "PARAMN": 1,
    "AVAL": 5,
    "BASE": 6,
    "CHG": -1,
    "AVISIT": "Week 12",
    "AVISITN": 12,
    "ADT": "2014-04-24",
    "ADY": 63,
    "ABLFL": null,
    "ANL01FL": "Y",
    "DTYPE": null
  },
  {
    "STUDYID": "CDISCPILOT01",
    "USUBJID": "01-704-1010",
    "SITEID": "704",
    "SITEGR1": "704",
    "TRT01P": "Placebo",
    "TRT01A": "Placebo",
    "TRT01PN": 0,
    "TRTP": "Placebo",
    "TRTA": "Placebo",
    "TRTSDT": "2014-02-21",
    "TRTEDT": "2014-07-08",
    "SAFFL": "Y",
    "ITTFL": "Y",
    "EFFFL": "Y",
    "PARAMCD": "NPTOT",
    "PARAM": "NPI-X Total (9) Score",
    "PARAMN": 1,
    "AVAL": 1,
    "BASE": 6,
    "CHG": -5,
    "AVISIT": "Week 16",
    "AVISITN": 16,
    "ADT": "2014-05-16",
    "ADY": 85,
    "ABLFL": null,
    "ANL01FL": "Y",
    "DTYPE": null
  },
  {
    "STUDYID": "CDISCPILOT01",
    "USUBJID": "01-704-1010",
    "SITEID": "704",
    "SITEGR1": "704",
    "TRT01P": "Placebo",
    "TRT01A": "Placebo",
    "TRT01PN": 0,
    "TRTP": "Placebo",
    "TRTA": "Placebo",
    "TRTSDT": "2014-02-21",
    "TRTEDT": "2014-07-08",
    "SAFFL": "Y",
    "ITTFL": "Y",
    "EFFFL": "Y",
    "PARAMCD": "NPTOT",
    "PARAM": "NPI-X Total (9) Score",
    "PARAMN": 1,
    "AVAL": 1,
    "BASE": 6,
    "CHG": -5,
    "AVISIT": "Week 20",
    "AVISITN": 20,
    "ADT": "2014-06-13",
    "ADY": 113,
    "ABLFL": null,
    "ANL01FL": "Y",
    "DTYPE": null
  },
  {
    "STUDYID": "CDISCPILOT01",
    "USUBJID": "01-704-1010",
    "SITEID": "704",
    "SITEGR1": "704",
    "TRT01P": "Placebo",
    "TRT01A": "Placebo",
    "TRT01PN": 0,
    "TRTP": "Placebo",
    "TRTA": "Placebo",
    "TRTSDT": "2014-02-21",
    "TRTEDT": "2014-07-08",
    "SAFFL": "Y",
    "ITTFL": "Y",
    "EFFFL": "Y",
    "PARAMCD": "NPTOT",
    "PARAM": "NPI-X Total (9) Score",
    "PARAMN": 1,
    "AVAL": 1,
    "BASE": 6,
    "CHG": -5,
    "AVISIT": "Week 24",
    "AVISITN": 24,
    "ADT": "2014-07-09",
    "ADY": 139,
    "ABLFL": null,
    "ANL01FL": "Y",
    "DTYPE": null
  },
  {
    "STUDYID": "CDISCPILOT01",
    "USUBJID": "01-704-1017",
    "SITEID": "704",
    "SITEGR1": "704",
    "TRT01P": "Xanomeline High Dose",
    "TRT01A": "Xanomeline High Dose",
    "TRT01PN": 2,
    "TRTP": "Xanomeline High Dose",
    "TRTA": "Xanomeline High Dose",
    "TRTSDT": "2013-10-06",
    "TRTEDT": "2013-11-18",
    "SAFFL": "Y",
    "ITTFL": "Y",
    "EFFFL": "Y",
    "PARAMCD": "NPTOT",
    "PARAM": "NPI-X Total (9) Score",
    "PARAMN": 1,
    "AVAL": 61,
    "BASE": 61,
    "CHG": null,
    "AVISIT": "Baseline",
    "AVISITN": 0,
    "ADT": "2013-10-06",
    "ADY": 1,
    "ABLFL": "Y",
    "ANL01FL": "Y",
    "DTYPE": null
  },
  {
    "STUDYID": "CDISCPILOT01",
    "USUBJID": "01-704-1017",
    "SITEID": "704",
    "SITEGR1": "704",
    "TRT01P": "Xanomeline High Dose",
    "TRT01A": "Xanomeline High Dose",
    "TRT01PN": 2,
    "TRTP": "Xanomeline High Dose",
    "TRTA": "Xanomeline High Dose",
    "TRTSDT": "2013-10-06",
    "TRTEDT": "2013-11-18",
    "SAFFL": "Y",
    "ITTFL": "Y",
    "EFFFL": "Y",
    "PARAMCD": "NPTOT",
    "PARAM": "NPI-X Total (9) Score",
    "PARAMN": 1,
    "AVAL": 38,
    "BASE": 61,
    "CHG": -23,
    "AVISIT": "Week 4",
    "AVISITN": 4,
    "ADT": "2013-11-09",
    "ADY": 35,
    "ABLFL": null,
    "ANL01FL": "Y",
    "DTYPE": null
  },
  {
    "STUDYID": "CDISCPILOT01",
    "USUBJID": "01-704-1017",
    "SITEID": "704",
    "SITEGR1": "704",
    "TRT01P": "Xanomeline High Dose",
    "TRT01A": "Xanomeline High Dose",
    "TRT01PN": 2,
    "TRTP": "Xanomeline High Dose",
    "TRTA": "Xanomeline High Dose",
    "TRTSDT": "2013-10-06",
    "TRTEDT": "2013-11-18",
    "SAFFL": "Y",
    "ITTFL": "Y",
    "EFFFL": "Y",
    "PARAMCD": "NPTOT",
    "PARAM": "NPI-X Total (9) Score",
    "PARAMN": 1,
    "AVAL": 16,
    "BASE": 61,
    "CHG": -45,
    "AVISIT": "Week 8",
    "AVISITN": 8,
    "ADT": "2013-11-24",
    "ADY": 50,
    "ABLFL": null,
    "ANL01FL": "Y",
    "DTYPE": null
  },
  {
    "STUDYID": "CDISCPILOT01",
    "USUBJID": "01-704-1025",
    "SITEID": "704",
    "SITEGR1": "704",
    "TRT01P": "Xanomeline Low Dose",
    "TRT01A": "Xanomeline Low Dose",
    "TRT01PN": 1,
    "TRTP": "Xanomeline Low Dose",
    "TRTA": "Xanomeline Low Dose",
    "TRTSDT": "2013-09-27",
    "TRTEDT": "2013-10-24",
    "SAFFL": "Y",
    "ITTFL": "Y",
    "EFFFL": "Y",
    "PARAMCD": "NPTOT",
    "PARAM": "NPI-X Total (9) Score",
    "PARAMN": 1,
    "AVAL": 5,
    "BASE": 5,
    "CHG": null,
    "AVISIT": "Baseline",
    "AVISITN": 0,
    "ADT": "2013-09-27",
    "ADY": 1,
    "ABLFL": "Y",
    "ANL01FL": "Y",
    "DTYPE": null
  },
  {
    "STUDYID": "CDISCPILOT01",
    "USUBJID": "01-704-1025",
    "SITEID": "704",
    "SITEGR1": "704",
    "TRT01P": "Xanomeline Low Dose",
    "TRT01A": "Xanomeline Low Dose",
    "TRT01PN": 1,
    "TRTP": "Xanomeline Low Dose",
    "TRTA": "Xanomeline Low Dose",
    "TRTSDT": "2013-09-27",
    "TRTEDT": "2013-10-24",
    "SAFFL": "Y",
    "ITTFL": "Y",
    "EFFFL": "Y",
    "PARAMCD": "NPTOT",
    "PARAM": "NPI-X Total (9) Score",
    "PARAMN": 1,
    "AVAL": 2,
    "BASE": 5,
    "CHG": -3,
    "AVISIT": "Week 4",
    "AVISITN": 4,
    "ADT": "2013-10-25",
