Rule ID,SDTMIG Version,Rule Version,Class,Domain,Variable,Condition,Rule,Document,Section,Item ,Cited Guidance,Release Notes,,,,,,,,,,,,
CG0001,3.2,1,ALL,ALL,DOMAIN,Not custom domain,DOMAIN = valid Domain Code published by CDISC,IG v3.2,2.6,3.d,"Check the CDISC Controlled Terminology [see Appendix C - Controlled Terminology] for reserved two-character domain identifiers or abbreviations. If one has not been assigned by CDISC, then the sponsor may select the unique two-character domain code to be used consistently throughout the submission.",,,,,,,,,,,,,
CG0001,3.3,1,ALL,ALL,DOMAIN,Not custom domain,DOMAIN = valid Domain Code published by CDISC,IG v3.3,2.6,3.e,"Determine the domain code, one that is not a domain code in the CDISC Controlled Terminology codelist ""SDTM Domain Abbreviations"" available at http://www.cancer.gov/research/resources/terminology/cdisc. If it desired to have this domain code as part of CDISC controlled terminology, then submit a request to https://ncitermform.nci.nih.gov/ncitermform/?version=cdisc. The sponsor-selected, two-character domain code should be used consistently throughout the submission.",,,,,,,,,,,,,
CG0001,3.4,1,ALL,ALL,DOMAIN,Not custom domain,DOMAIN = valid Domain Code published by CDISC,IG v3.4,3.2.2,,Using SDTM-specified standard domain names and prefixes where applicable,Section and cited guidance updated.  Orginal cited guidance was for a custom domain.,,,,,,,,,,,,
CG0002,3.2,1,ALL,ALL,--DUR,--DUR ^= null,--DUR collected and not derived,Model v1.4,2.2.5,,"Collected duration of an event, intervention, or finding represented in ISO 8601 character format. Used only if collected on the CRF and not derived.",,,,,,,,,,,,,
CG0002,3.3,1,ALL,ALL,--DUR,--DUR ^= null,--DUR collected and not derived,Model v1.7,2.2.5,,"Collected duration of an event, intervention, or finding. Used only if collected on the CRF and not derived.  Format=ISO8601",,,,,,,,,,,,,
CG0002,3.4,1,ALL,ALL,--DUR,--DUR ^= null,--DUR collected and not derived,Model v2.0,Timing,--DUR,Used only if collected on the CRF and not derived.,Cited guidance updated. Reference to model section and item updated per new style.,,,,,,,,,,,,
CG0006,3.2,2,ALL,ALL,--DY,Date portion of --DTC is complete and date portion of RFSTDTC is a complete date AND --DY is ^= null,--DY calculated as per the study day algorithm as a non-zero integer value,IG v3.2,4.1.4.4,,"IG v3.2[4.1.4.4][The Study Day value is incremented by 1 for each date following RFSTDTC. Dates prior to RFSTDTC are decreased by 1, with the date preceding RFSTDTC designated as Study Day -1 (there is no Study Day 0). . . . All Study Day values are integers.]IG v3.2[4.1.4.4][Thus, to calculate Study Day:  --DY = (date portion of --DTC) - (date portion of RFSTDTC) + 1 if --DTC is on or after RFSTDTC --DY = (date portion of --DTC) - (date portion of RFSTDTC) if --DTC precedes RFSTDTC This algorithm should be used across all domains.]","A change in the condition resulted in a new rule version.  The version 1 condition was: ""Date portion of --DTC is complete and RFSTDTC is a complete date AND --DY is ^= null"". The date portion of RFSTDTC was added to ensure clarity.",,,,,,,,,,,,
CG0006,3.3,2,ALL,ALL,--DY,Date portion of --DTC is complete and date portion of RFSTDTC is a complete date AND --DY is ^= null,--DY calculated as per the study day algorithm as a non-zero integer value,IG v3.3,4.4.4,,"IG v3.3[4.4.4][The Study Day value is incremented by 1 for each date following RFSTDTC. Dates prior to RFSTDTC are decreased by 1, with the date preceding RFSTDTC designated as Study Day -1 (there is no Study Day 0). . . . All Study Day values are integers.] IG v3.3[4.4.4][ Thus, to calculate Study Day:  --DY = (date portion of --DTC) - (date portion of RFSTDTC) + 1 if --DTC is on or after RFSTDTC --DY = (date portion of --DTC) - (date portion of RFSTDTC) if --DTC precedes RFSTDTC This algorithm should be used across all domains.]","The original 3.2 rule condition did not specify that the date portion of RFSTDTC was to be used.  This is corrected in 3.3, as well as version 2 of the 3.2 rule.",,,,,,,,,,,,
CG0006,3.4,2,ALL,ALL,--DY,Date portion of --DTC is complete and date portion of RFSTDTC is a complete date AND --DY is ^= null ,--DY calculated as per the study day algorithm as a non-zero integer value ,IG v3.4,4.4.4,,"The Study Day value is incremented by 1 for each date following RFSTDTC. Dates prior to RFSTDTC are decreased by 1, with the date preceding RFSTDTC designated as Study Day -1 (there is no Study Day 0). . . . All Study Day values are integers. Thus, to calculate Study Day: --DY = (date portion of --DTC) - (date portion of RFSTDTC) + 1 if --DTC is on or after RFSTDTC --DY = (date portion of --DTC) - (date portion of RFSTDTC) if --DTC precedes RFSTDTC This algorithm should be used across all domains.",No Change,,,,,,,,,,,,
CG0007,3.2,1,ALL,ALL,--DY,The date portion of --DTC ^= complete date or the date portion of DM.RFSTDTC ^= complete date,--DY = null,IG v3.2,4.1.4.4,,"The permissible Study Day variables (--DY, --STDY, and --ENDY) . . . are determined by comparing the date portion of the respective date/time variables (--DTC, --STDTC, and --ENDTC) to the date portion of the Subject Reference Start Date (RFSTDTC from the Demographics domain).",,,,,,,,,,,,,
CG0007,3.3,1,ALL,ALL,--DY,The date portion of --DTC ^= complete date or the date portion of DM.RFSTDTC ^= complete date,--DY = null,IG v3.3,4.4.4,,"The permissible Study Day variables (--DY, --STDY, and --ENDY) . . . are determined by comparing the date portion of the respective date/time variables (--DTC, --STDTC, and --ENDTC) to the date portion of the Subject Reference Start Date (RFSTDTC from the Demographics domain).",,,,,,,,,,,,,
CG0007,3.4,1,ALL,ALL,--DY,The date portion of --DTC ^= complete date or the date portion of DM.RFSTDTC ^= complete date,--DY = null,IG v3.4,4.4.4,,"The permissible Study Day variables (--DY, --STDY, and --ENDY) . . . are determined by comparing the date portion of the respective date/time variables (--DTC, --STDTC, and --ENDTC) to the date portion of the Subject Reference Start Date (RFSTDTC from the Demographics domain).",No Change,,,,,,,,,,,,
CG0008,3.2,1,ALL,ALL,--ELTM,--TPTREF = null,--ELTM = null,Model v1.4,2.2.5,Table 2.2.5: --ELTM,"Planned Elapsed time in ISO 8601 character format relative to a planned fixed reference (--TPTREF) such as ""Previous Dose"" or ""Previous Meal"".",,,,,,,,,,,,,
CG0008,3.3,1,ALL,ALL,--ELTM,--TPTREF = null,--ELTM = null,Model v1.7,2.2.5,Table 2.2.5: --ELTM,"Planned Elapsed time relative to a planned fixed reference (--TPTREF) such as ""Previous Dose"" or ""Previous Meal"". This variable is useful where there are repetitive measures. Not a clock time or a date/time variable, but an interval.   Format=ISO8601",,,,,,,,,,,,,
CG0008,3.4,1,ALL,ALL,--ELTM,--TPTREF = null,--ELTM = null,Model v2.0,Timing,--ELTM,"The interval of time between a planned time point and a fixed reference point, represented in a standardized character format. The fixed reference point is in --TPTREF.",Cited guidance updated. Reference to model section and item updated per new style.,,,,,,,,,,,,
CG0009,3.2,1,ALL,ALL,EPOCH,,EPOCH in TA.EPOCH,IG v3.2,6.2,"DS, Assumption 3.c","... EPOCH, as a Timing variable, is the name of the Epoch during which --STDTC or --DTC falls. The values of EPOCH are drawn from the Trial Arms domain, Section 7.2 - Experimental Design: Trial Arms (TA)",,,,,,,,,,,,,
CG0009,3.3,1,ALL,ALL,EPOCH,,EPOCH in TA.EPOCH,IG v3.3,6.2.3,"DS, Assumption 4.c","EPOCH may be included as a timing variable as in other general-observation-class domains. In DS, EPOCH is based on DSSTDTC. The values of EPOCH are drawn from the Trial Arms (TA) dataset (Section 7.2.1, Trial Arms).",,,,,,,,,,,,,
CG0009,3.4,1,ALL,ALL,EPOCH,,EPOCH in TA.EPOCH,IG v3.4,6.2.3,"DS, Assumption 4.c","EPOCH may be included as a timing variable as in other general-observation-class domains. In DS, EPOCH is based on DSSTDTC. The values of EPOCH are drawn from the Trial Arms(TA) dataset (Section 7.2.1, Trial Arms).",No Change,,,,,,,,,,,,
CG0010,3.2,2,ALL,ALL,GEN,,"Metadata attribute of Variable Role = IG Role for domains in IG, Metadata attribute of Variable Role = Model Role for custom domains",IG v3.2|Model v1.4,IG v3.2[3.1]|Model v1.4[2],,IG v3.2[3.1][Since these roles are predefined for all standard domains that follow the general observation classes]|Model v1.4[2][Each variable . . . can be classified according to its Role],"""Metadata attribute of"" added into the rule.",,,,,,,,,,,,
CG0010,3.3,2,ALL,ALL,GEN,,"Metadata attribute of Variable Role = IG Role for domains in IG, Metadata attribute of Variable Role = Model Role for custom domains",IG v3.3,2.1,,Each variable can be classified according to its Role. A Role determines the type of information conveyed by the variable about each distinct observation and how it can be used. Variables can be classified into five major roles.,"""Metadata attribute of"" added into the rule.",,,,,,,,,,,,
CG0010,3.4,2,ALL,ALL,GEN,,"Metadata attribute of Variable Role = IG Role for domains in IG, Metadata attribute of Variable Role = Model Role for custom domains",IG v3.4,2.1,,Each variable can be classified according to its Role. A Role determines the type of information conveyed by the variable about each distinct observation and how it can be used. Variables can be classified into five major roles.,"""Metadata attribute of"" added into the rule.",,,,,,,,,,,,
CG0011,3.2,1,ALL,ALL,GEN,,"Variable Format = SDTM-specified controlled terminology and format guidelines for variables, when provided",IG v3.2,3.2.2,,"Following SDTM-specified controlled terminology and format guidelines for variables, when provided",,,,,,,,,,,,,
CG0011,3.3,1,ALL,ALL,GEN,,"Variable Format = SDTM-specified controlled terminology and format guidelines for variables, when provided",IG v3.3,3.2.2,,"Following SDTM-specified controlled terminology and format guidelines for variables, when provided",,,,,,,,,,,,,
CG0011,3.4,1,ALL,ALL,GEN,,"Variable Format = SDTM-specified controlled terminology and format guidelines for variables, when provided",IG v3.4,3.2.2,,"Following SDTM-specified controlled terminology and format guidelines for variables, when provided",No Change,,,,,,,,,,,,
CG0012,3.2,1,ALL,ALL,GEN,,"Variable Type = IG Type for domains in IG, Type = Model Type for custom domains",IG v3.2|Model v1.4,IG v3.2[3.2.2]|Model v1.4[2],,"IG v3.2[3.2.2][Using SDTM-specified data types for all variables]|Model v1.4[2][The data Type (e.g., whether the variable value is a character or numeric)]",,,,,,,,,,,,,
CG0012,3.3,1,ALL,ALL,GEN,,"Variable Type = IG Type for domains in IG, Type = Model Type for custom domains",IG v3.3|Model v1.7,IG v3.3[3.2.2]|Model v1.7[2.1],,"IG v3.3[3.2.2][Using SDTM-specified data types for all variables]|Model v1.7[2.1][The SDTM describes the name, label, role, and type for the standard variables. Note that the SDTM type specified in this document is either character or numeric, as these are the only types supported by SAS v.5 transport files.]",,,,,,,,,,,,,
CG0012,3.4,1,ALL,ALL,GEN,,"Variable Type = IG Type for domains in IG, Type = Model Type for custom domains",IG v3.4|Model v2.0,IG v3.4[3.2.2]|Model v2.0[2.1],,"IG v3.4[3.2.2][Using SDTM-specified data types for all variables]|Model v2.0[2.1][Note that the SDTM type specified in this document is either character or numeric, as these are the only types supported by SAS v.5 transport files.]","""The SDTM describes the name, label, role, and type for the standard variables."" has been removed from the Cited Guidance for the model as it no longer appears in the model.",,,,,,,,,,,,
CG0013,3.2,1,ALL,ALL,GEN,,Variable = Model List of Allowed Variables for Observation Class,IG v3.2|Model v1.4,IG v3.2[2.5]|Model v1.4[3.2.22],,IG v3.2[2.5][Sponsors may not add any other variables. . . . Standard variables must not be renamed or modified for novel usage. Using SDTM-specified standard variable names.]|Model v1.4[3.2.22][Each observation can be described by a series of named variables.],,,,,,,,,,,,,
CG0013,3.3,1,ALL,ALL,GEN,,Variable = Model List of Allowed Variables for Observation Class,IG v3.3|Model v1.7,IG v3.3[2.5]|Model v1.7[3.2.2 2.1],,"IG v3.3[2.5][Sponsors may not add any other variables. . . . Standard variables must not be renamed or modified for novel usage]|IG v3.3[2.5][[Using SDTM-specified standard variable names]|Model v1.7[3.2.2 2.1][Each observation can be described by a series of named variables. Domain-specific variables, a concept introduced in SDTM v1.5, are for use in a limited number of designated domains and will be identified in the appropriate implementation guide.]",,,,,,,,,,,,,
CG0013,3.4,1,ALL,ALL,GEN,,Variable = Model List of Allowed Variables for Observation Class,IG v3.4|Model v2.0,2.5|Model Concepts and Terms --Variables|The General Observation Classes,,"IG v3.4[2.5][Sponsors may not add any variables other than those described in the preceding three bullets. . . . Standard variables must not be renamed or modified for novel usage.]|Model 2.0[Model Concepts and Terms --Variables][Each observation consists of a series of named variables.]|Model 2.0[The General Observation Classes]Domain-specific variables, a concept introduced in SDTM v1.5, are for use in a limited number of designated domains and will be identified in the appropriate implementation guide.]",IG section number updated and citation clarified.  Also updated how the section is referred to in SDTM v2.0 per new guidelines.,,,,,,,,,,,,
CG0014,3.2,1,ALL,ALL,GEN,Variable Core Status = Required,Variable present in dataset and ^= null,IG v3.2,4.1.1.5,,Required variables must always be included in the dataset and cannot be null for any record.,,,,,,,,,,,,,
CG0014,3.3,1,ALL,ALL,GEN,Variable Core Status = Required,Variable present in dataset and ^= null,IG v3.3,4.1.5,,Required variables must always be included in the dataset and cannot be null for any record.,,,,,,,,,,,,,
CG0014,3.4,1,ALL,ALL,GEN,Variable Core Status = Required,Variable present in dataset and ^= null,IG v3.4,4.1.5,,Required variables must always be included in the dataset and cannot be null for any record.,No Change,,,,,,,,,,,,
CG0015,3.2,1,ALL,ALL,GEN,Variable Core Status = Permissible and data is collected,Variable present in dataset and ^= null,IG v3.2,4.1.1.5,,The sponsor does not have the discretion to exclude permissible variables when they contain data.,,,,,,,,,,,,,
CG0015,3.3,1,ALL,ALL,GEN,Variable Core Status = Permissible and data is collected,Variable present in dataset and ^= null,IG v3.3,4.1.5,,The sponsor does not have the discretion to exclude permissible variables when they contain data.,,,,,,,,,,,,,
CG0015,3.4,1,ALL,ALL,GEN,Variable Core Status = Permissible and data is collected,Variable present in dataset and ^= null,IG v3.4,4.1.5,,"If a study includes a data item that would be represented in a Permissible variable, then that variable must be included in the SDTM dataset, even if null. ",Text for cited guidance was modified in SDTMIG v3.4,,,,,,,,,,,,
CG0016,3.2,1,ALL,ALL,GEN,Variable Core Status = Expected,Variable present in dataset,IG v3.2,4.1.1.5,,"When no data has been collected for an expected variable, however, a null column must still be included in the dataset, and a comment must be included in the define.xml to state that data was not collected.",,,,,,,,,,,,,
CG0016,3.3,1,ALL,ALL,GEN,Variable Core Status = Expected,Variable present in dataset,IG v3.3,4.1.5,,"When no data has been collected for an expected variable, however, a null column must still be included in the dataset, and a comment must be included in the define.xml to state that data was not collected.",,,,,,,,,,,,,
CG0016,3.4,1,ALL,ALL,GEN,Variable Core Status = Expected,Variable present in dataset,IG v3.4,4.1.5,,"When the study does not include the data item for an expected variable, however, a null column must still be included in the dataset, and a comment must be included in the Define-XML document to state that the study does not include the data item.",Text for cited guidance was modified in SDTMIG v3.4,,,,,,,,,,,,
CG0017,3.2,2,NOT (AP),ALL,GEN,Non-Supplemental Qualifier datasets,Split dataset names length > 2 and <= 4,IG v3.2|AP Guide v1.0,4.1.1.7|2,Rule 6,"4.1.1.7[Split dataset names can be up to four characters in length. For example, if splitting by --CAT, then dataset names would be the domain name plus up to two additional characters (e.g., QS36 for SF-36). If splitting Findings About by parent domain, then the dataset name would be the domain name plus the two-character domain code describing the parent domain code (e.g., FACM).]|2[AP domain codes are therefore four characters long.]",Class changed to NOT (AP). New rule version 2.,,,,,,,,,,,,
CG0017,3.3,2,NOT (AP),ALL,GEN,Non-Supplemental Qualifier datasets,Split dataset names length > 2 and <= 4,IG v3.3|AP Guide v1.0,4.1.7|2,Rule 6,"4.1.7[Split dataset names can be up to four characters in length. For example, if splitting by --CAT, then dataset names would be the domain name plus up to two additional characters (e.g., QS36 for SF-36). If splitting Findings About by parent domain, then the dataset name would be the domain name plus the two-character domain code describing the parent domain code (e.g., FACM).]|2[AP domain codes are therefore four characters long.]",Class changed to NOT (AP). New rule version 2.,,,,,,,,,,,,
CG0017,3.4,2,NOT (AP),ALL,GEN,Non-Supplemental Qualifier datasets,Split dataset names length > 2 and <= 4,IG v3.4|AP Guide v1.0,4.1.7|2,Item 6,"4.1.7[For domains with two-letter domain codes (i.e., other than SUPPxx and RELREC), split dataset names can be up to four characters in length... The four-character dataset-name limitation allows the use of a Supplemental Qualifier dataset associated with the split dataset]|2[AP domain codes are therefore four characters long.]",Text for cited guidance was modified in SDTMIG v3.4.  Class changed to NOT (AP).  New rule version 2.,,,,,,,,,,,,
CG0018,3.2,1,ALL,ALL,GEN,Supplemental Qualifier datasets,Split dataset names length <= 8,IG v3.2,4.1.1.7,Rule 7,Supplemental Qualifier datasets for split domains would also be split. The nomenclature would include the additional one-to-two characters used to identify the split dataset.,,,,,,,,,,,,,
CG0018,3.3,1,ALL,ALL,GEN,Supplemental Qualifier datasets,Split dataset names length <= 8,IG v3.3,4.1.7,Rule 7,Supplemental Qualifier datasets for split domains would also be split. The nomenclature would include the additional one-to-two characters used to identify the split dataset.,,,,,,,,,,,,,
CG0018,3.4,1,ALL,ALL,GEN,Supplemental Qualifier datasets,Split dataset names length <= 8,IG v3.4,4.1.7,7,Supplemental Qualifier datasets for split domains would also be split. The nomenclature would include the additional one-to-two characters used to identify the split dataset.,No Change,,,,,,,,,,,,
CG0019,3.2,1,ALL,ALL,GEN,,Each record is unique per sponsor defined key variables as documented in the define.xml,IG v3.2,Table 3.2.1|3.2.1.1,,"Table 3.2.1[Note that the key variables shown in this table are examples only. A sponsor's actual key structure may be different.]|3.2.1.1[Since the purpose of this column is to aid reviewers in understanding the structure of a dataset, sponsors should list all of the natural keys (see definition below) for the dataset. These keys should define uniqueness for records within a dataset, and may define a record sort order.]",,,,,,,,,,,,,
CG0019,3.3,1,ALL,ALL,GEN,,Each record is unique per sponsor defined key variables as documented in the define.xml,IG v3.3,Table 3.2.1|3.2.1.1,,"Table 3.2.1[Note that the key variables shown in this table are examples only. A sponsor's actual key structure may be different.]||3.2.1.1[Since the purpose of this column is to aid reviewers in understanding the structure of a dataset, sponsors should list all of the natural keys (see definition below) for the dataset. These keys should define uniqueness for records within a dataset, and may define a record sort order.]",,,,,,,,,,,,,
CG0019,3.4,1,ALL,ALL,GEN,,Each record is unique per sponsor defined key variables as documented in the define.xml,IG v3.4,Table 3.2.1|3.2.1.1,,"Table 3.2.1[Note that the key variables shown in this table are examples only. A sponsor's actual key structure may be different.]||3.2.1.1[Since the purpose of this column is to aid reviewers in understanding the structure of a dataset, sponsors should list all of the natural keys (see definition below) for the dataset. These keys should define uniqueness for records within a dataset, and may define a record sort order. The identified keys for each dataset should be consistent with the description of the dataset structure as described in the Define-XML document.]",Cited guidance was added for the  Define-XML portion of the rule.,,,,,,,,,,,,
CG0020,3.2,1,ALL,ALL,GEN,Use of value 'MULTIPLE' is appropriate to the data being represented,Value in associated codelist or 'MULTIPLE',IG v3.2,3.2.2|4.1.2.8.3,,"3.2.2[Conformance with the SDTMIG Domain Models is minimally indicated by following SDTM-specified controlled terminology and format guidelines for variables, when provided]4.1.2.8.3[The SDTM permits one value for each Qualifier variable per record. If multiple values exist (e.g., due to a ""Check all that apply"" instruction on a CRF), then the value for the Qualifier variable should be ""MULTIPLE"" and SUPP-- should be used to store the individual responses.]",Cited guidance sections added.,,,,,,,,,,,,
CG0020,3.3,1,ALL,ALL,GEN,Use of value 'MULTIPLE' is appropriate to the data being represented,Value in associated codelist or 'MULTIPLE',IG v3.3,3.2.2|4.2.8.3,,"3.2.2[Conformance with the SDTMIG Domain Models is minimally indicated by following SDTM-specified controlled terminology and format guidelines for variables, when provided]4.2.8.3[The SDTM permits one value for each Qualifier variable per record. If multiple values exist (e.g., due to a ""Check all that apply"" instruction on a CRF), then the value for the Qualifier variable should be ""MULTIPLE"" and SUPP-- should be used to store the individual responses.]",Cited guidance sections added.,,,,,,,,,,,,
CG0020,3.4,1,ALL,ALL,GEN,Use of value 'MULTIPLE' is appropriate to the data being represented,Value in associated codelist or 'MULTIPLE',IG v3.4,3.2.2|4.2.8.3,,"3.2.2[Conformance with the SDTMIG Domain Models is minimally indicated by following SDTM-specified controlled terminology and format guidelines for variables, when provided]|4.2.8.3[The SDTM permits one value for each Qualifier variable per record. If multiple values exist (e.g., due to a ""Check all that apply"" instruction on a CRF), then the value for the Qualifier variable should be ""MULTIPLE"" and SUPP-- should be used to store the individual responses.]",,,,,,,,,,,,,
CG0021,3.2,1,ALL,ALL,GEN,Variable associated with extensible codelist and the use of value 'OTHER' is appropriate to the data being represented,Value in associated codelist or 'OTHER',IG v3.2,3.2.2|4.1.2.7.1,,"3.2.2[Conformance with the SDTMIG Domain Models is minimally indicated by following SDTM-specified controlled terminology and format guidelines for variables, when provided]|4.1.2.7.1[When the CRF includes a list of values for a qualifier field that includes ""Other"" and the ""Other"" is supplemented with a ""Specify"" free text field,]",,,,,,,,,,,,,
CG0021,3.3,1,ALL,ALL,GEN,Variable associated with extensible codelist and the use of value 'OTHER' is appropriate to the data being represented,Value in associated codelist or 'OTHER',IG v3.3,3.2.2|4.2.7.1,,"3.2.2[Conformance with the SDTMIG Domain Models is minimally indicated by following SDTM-specified controlled terminology and format guidelines for variables, when provided]|4.2.7.1[When the CRF includes a list of values for a qualifier field that includes ""Other"" and the ""Other"" is supplemented with a ""Specify"" free text field,]",,,,,,,,,,,,,
CG0021,3.4,1,ALL,ALL,GEN,Variable associated with extensible codelist and the use of value 'OTHER' is appropriate to the data being represented,Value in associated codelist or 'OTHER',IG v3.4,3.2.2|4.2.7.1,,"3.2.2[Conformance with the SDTMIG Domain Models is minimally indicated by following SDTM-specified controlled terminology and format guidelines for variables, when provided]|4.2.7.1[When the CRF includes a list of values for a qualifier field that includes ""Other"" and the ""Other"" is supplemented with a ""Specify"" free text field,]",No Change,,,,,,,,,,,,
CG0022,3.2,1,ALL,ALL,--LNKGRP,--LNKGRP present in a domain,--LNKGRP present in another domain,IG v3.2,6.1,Specification,"Identifier used to link related, grouped records across domains.",,,,,,,,,,,,,
CG0022,3.3,1,ALL,ALL,--LNKGRP,--LNKGRP present in a domain,--LNKGRP present in another domain,IG v3.3,4.2.6,2.E.2,"--LNKGRP is a grouping identifier used to identify a group of records in one domain that is related to a record in another domain, often forming a many-to-one relationship.",,,,,,,,,,,,,
CG0022,3.4,1,ALL,ALL,--LNKGRP,--LNKGRP present in a domain,--LNKGRP present in another domain,IG v3.4,4.2.6,2.E.2,"--LNKGRP is a grouping identifier used to identify a group of records in one domain that is related to a record in another domain, often forming a many-to-one relationship.",No Change,,,,,,,,,,,,
CG0024,3.2,1,ALL,ALL,--LNKID,--LNKID present in a domain,--LNKID present in another domain,IG v3.2,6.1,Specification,Identifier used to link related records across domains.,,,,,,,,,,,,,
CG0024,3.3,1,ALL,ALL,--LNKID,--LNKID present in a domain,--LNKID present in another domain,IG v3.3,4.2.6,2.E.1,"--LNKID is a grouping identifier used to identify a record in one domain that is related to records in another domain, often forming a one-to-many relationship.",,,,,,,,,,,,,
CG0024,3.4,1,ALL,ALL,--LNKID,--LNKID present in a domain,--LNKID present in another domain,IG v3.4,4.2.6,2.E.1,"--LNKID is a grouping identifier used to identify a record in one domain that is related to records in another domain, often forming a one-to-many relationship.",No Change,,,,,,,,,,,,
CG0026,3.2,1,ALL,ALL,--RFTDTC,--TPTREF = null,--RFTDTC = null,Model v1.4,2.2.5,Table 2.2.5: --RFTDTC,Date/time for a fixed reference time point defined by --TPTREF in ISO 8601 character format.,,,,,,,,,,,,,
CG0026,3.3,1,ALL,ALL,--RFTDTC,--TPTREF = null,--RFTDTC = null,Model v1.7,2.2.5,--RFTDTC,Date/time for a fixed reference time point defined by --TPTREF,,,,,,,,,,,,,
CG0026,3.4,1,ALL,ALL,--RFTDTC,--TPTREF = null,--RFTDTC = null,Model v2.0,Timing,--RFTDTC,"The actual date or date and time of a time point that acts as a fixed reference for a series of planned time points, represented in a standardized character format. The fixed reference point is in --TPTREF.",Cited guidance updated. Reference to model section and item updated per new style.,,,,,,,,,,,,
CG0027,3.2,1,ALL,ALL,--SCAT,--SCAT ^= null,--SCAT ^= --CAT,Model v1.4,2.2.1,Table 2.2.1: --SCAT,Used to define a further categorization of --CAT values.,,,,,,,,,,,,,
CG0027,3.3,1,ALL,ALL,--SCAT,--SCAT ^= null,--SCAT ^= --CAT,Model v1.7,2.2.1,--SCAT,Used to define a further categorization of --CAT values.,,,,,,,,,,,,,
CG0027,3.4,1,ALL,ALL,--SCAT,--SCAT ^= null,--SCAT ^= --CAT,Model v2.0,Interventions,--SCAT,"A further grouping or classification of the category for the topic of the finding, event, or intervention. The category is in --CAT.",Cited guidance updated. Reference to model section and item updated per new style.,,,,,,,,,,,,
CG0028,3.2,1,ALL,ALL,--SEQ,Variable is not TS.TSSEQ,"--SEQ is a unique number per USUBJID per domain, or a unique number per POOLID per domain, including when the domain is split into multiple files",Model v1.4,2.2.4,Table 2.2.4: --SEQ,"Sequence number to ensure uniqueness of records within a dataset for a subject (or within a parameter, in the case of the Trial Summary domain). May be any valid number (including decimals) and does not have to start at 1.",,,,,,,,,,,,,
CG0028,3.3,1,ALL,ALL,--SEQ,Variable is not TS.TSSEQ,"--SEQ is a unique number per USUBJID per domain, or a unique number per POOLID per domain, including when the domain is split into multiple files",Model v1.7,2.2.4,--SEQ,"Sequence number to ensure uniqueness of records within a dataset for a subject (or within a parameter, in the case of the Trial Summary domain). May be any valid number (including decimals) and does not have to start at 1.",,,,,,,,,,,,,
CG0028,3.4,1,ALL,ALL,--SEQ,Variable is not TS.TSSEQ,"--SEQ is a unique number per USUBJID per domain, or a unique number per POOLID per domain, including when the domain is split into multiple files",Model v2.0,Identifiers,--SEQ,"A number used to uniquely identify records for a subject within a domain. The Trial Summary domain does not contain subject data, and TSSEQ is a sequence number to ensure uniqueness within the dataset.",Cited guidance updated. Reference to model section and item updated per new style.,,,,,,,,,,,,
CG0029,3.2,1,ALL,ALL,USUBJID,Domain Not in ('AP--'),USUBJID in DM.USUBJID,IG v3.2,4.1.2.3,,... a unique identifier (USUBJID) should be assigned and included in all datasets. The unique subject identifier (USUBJID) is required in all datasets containing subject-level data.,,,,,,,,,,,,,
CG0029,3.3,1,ALL,ALL,USUBJID,Domain Not in ('AP--'),USUBJID in DM.USUBJID,IG v3.3,4.2.3,,The unique subject identifier (USUBJID) is required in all datasets containing subject-level data. USUBJID values must be unique for each trial participant (subject) across all trials in the submission.,,,,,,,,,,,,,
CG0029,3.4,1,ALL,ALL,USUBJID,Domain Not in ('AP--'),USUBJID in DM.USUBJID,IG v3.4,4.2.3,,The unique subject identifier (USUBJID) is required in all datasets containing subject-level data. USUBJID values must be unique for each trial participant (subject) across all trials in the submission.,No Change,,,,,,,,,,,,
CG0031,3.2,1,ALL,ALL,VISIT,VISIT ^= null and is planned,VISIT in TV.VISIT,IG v3.2,4.1.4.5,,"For planned visits, values of VISIT, VISITNUM, and VISITDY must be those defined in the Trial Visits dataset,",,,,,,,,,,,,,
CG0031,3.3,1,ALL,ALL,VISIT,VISIT ^= null and is planned,VISIT in TV.VISIT,IG v3.3,4.4.5,,"For planned visits, values of VISIT, VISITNUM, and VISITDY must be those defined in the Trial Visits dataset,",,,,,,,,,,,,,
CG0031,3.4,1,ALL,ALL,VISIT ,VISIT ^= null and is planned,VISIT in TV.VISIT,IG v3.4,4.4.5,,"For planned visits, values of VISIT, VISITNUM, and VISITDY must be those defined in the Trial Visits (TV) dataset (Section 7.3.1, Trial Visits).",Text for cited guidance was slightly modified in SDTMIG v3.4,,,,,,,,,,,,
CG0032,3.2,2,ALL,ALL,VISITDY,VISITNUM is in TV.VISITNUM,VISITDY = TV.VISITDY,IG v3.2,4.1.4.5,,"For planned visits, values of VISIT, VISITNUM, and VISITDY must be those defined in the Trial Visits dataset,",Changed variable column from VISIT to VISITDY since the rule is about VISITDY. Upversioned rule.,,,,,,,,,,,,
CG0032,3.3,2,ALL,ALL,VISITDY,VISITNUM is in TV.VISITNUM,VISITDY = TV.VISITDY,IG v3.3,4.4.5,,"For planned visits, values of VISIT, VISITNUM, and VISITDY must be those defined in the Trial Visits dataset,",Changed variable column from VISIT to VISITDY since the rule is about VISITDY. Upversioned rule.,,,,,,,,,,,,
CG0032,3.4,2,ALL,ALL,VISITDY,VISITNUM is in TV.VISITNUM,VISITDY = TV.VISITDY,IG v3.4,4.4.5,,"For planned visits, values of VISIT, VISITNUM, and VISITDY must be those defined in the Trial Visits (TV) dataset (Section 7.3.1, Trial Visits).",Changed variable column from VISIT to VISITDY since the rule is about VISITDY. Upversioned rule. Text for cited guidance was slightly modified in SDTMIG v3.4,,,,,,,,,,,,
CG0033,3.2,2,ALL,ALL,VISITNUM,VISITNUM ^= null and is planned,VISITNUM in TV.VISITNUM,IG v3.2,4.1.4.5,,"For planned visits, values of VISIT, VISITNUM, and VISITDY must be those defined in the Trial Visits dataset.",Changed variable column from VISIT to VISITNUM since the rule is about VISITNUM. Upversioned rule.,,,,,,,,,,,,
CG0033,3.3,2,ALL,ALL,VISITNUM,VISITNUM ^= null and is planned,VISITNUM in TV.VISITNUM,IG v3.3,4.4.5,,"For planned visits, values of VISIT, VISITNUM, and VISITDY must be those defined in the Trial Visits dataset.",Changed variable column from VISIT to VISITNUM since the rule is about VISITNUM. Upversioned rule.,,,,,,,,,,,,
CG0033,3.4,2,ALL,ALL,VISITNUM,VISITNUM ^= null and is planned,VISITNUM in TV.VISITNUM,IG v3.4,4.4.5,,"For planned visits, values of VISIT, VISITNUM, and VISITDY must be those defined in the Trial Visits (TV) dataset (Section 7.3.1, Trial Visits).",Changed variable column from VISIT to VISITNUM since the rule is about VISITNUM. Upversioned rule. Text for cited guidance was slightly modified in SDTMIG v3.4,,,,,,,,,,,,
CG0034,3.2,2,ALL,ALL,VISITNUM,VISITNUM ^= null,VISITNUM in SV.VISITNUM,IG v3.2,5,,The Subject Visits domain consolidates information about the timing of subject visits that is otherwise spread over domains that include the visit variables (VISITNUM and possibly VISIT and/or VISITDY).,Changed variable column from VISIT to VISITNUM since the rule is about VISITNUM. Upversioned rule.,,,,,,,,,,,,
CG0034,3.3,2,ALL,ALL,VISITNUM,VISITNUM ^= null,VISITNUM in SV.VISITNUM,IG v3.3,5.5,,The Subject Visits domain consolidates information about the timing of subject visits that is otherwise spread over domains that include the visit variables (VISITNUM and possibly VISIT and/or VISITDY).,Changed variable column from VISIT to VISITNUM since the rule is about VISITNUM. Upversioned rule.,,,,,,,,,,,,
CG0034,3.4,2,ALL,ALL,VISITNUM,VISITNUM ^= null,VISITNUM in SV.VISITNUM,IG v3.4,5.5,,The Subject Visits domain consolidates information about the timing of subject visits that is otherwise spread over domains that include the visit variables (VISITNUM and possibly VISIT and/or VISITDY).,Changed variable column from VISIT to VISITNUM since the rule is about VISITNUM. Upversioned rule.,,,,,,,,,,,,
CG0035,3.2,1,ALL,ALL,VISITNUM,VISITNUM in TV.VISITNUM,VISIT and VISITNUM have a one-to-one relationship,IG v3.2,4.1.4.5,,There should be a one-to-one relationship between values of VISIT and VISITNUM.,,,,,,,,,,,,,
CG0035,3.3,1,ALL,ALL,VISITNUM,VISITNUM in TV.VISITNUM,VISIT and VISITNUM have a one-to-one relationship,IG v3.3,4.4.5,,There should be a one-to-one relationship between values of VISIT and VISITNUM.,,,,,,,,,,,,,
CG0035,3.4,1,ALL,ALL,VISITNUM,VISITNUM in TV.VISITNUM,VISIT and VISITNUM have a one-to-one relationship,IG v3.4,4.4.5,,There should be a one-to-one relationship between values of VISIT and VISITNUM.,No Change,,,,,,,,,,,,
CG0037,3.2,1,EVT,"NOT(DS, DV, HO)",--BDSYCD,Primary SOC used for analysis,--SOCCD = --BDSYCD,IG v3.2|Model v1.4,IG v3.2[6.2 AE]|Model v1.4[2.2.2],IG v3.2[6.2 AE][Specification]|Model v1.4[2.2.2][Table 2.2.2: --BDSYCD],"IG v3.2[6.2 AE][Specification][IG: Dictionary derived. Code for body system or organ class used by the sponsor from the coding dictionary (e.g., MedDRA). When using a multi-axial dictionary such as MedDRA, this should contain the SOC used for the sponsor's analyses and summary tables which may not necessarily be the primary SOC.]|Model v1.4[2.2.2][Table 2.2.2: --BDSYCD][Model:MedDRA System Organ Class code corresponding to --BODSYS assigned for analysis.]",,,,,,,,,,,,,
CG0037,3.3,1,EVT,"NOT(DS, DV, HO)",--BDSYCD,Primary SOC used for analysis,--SOCCD = --BDSYCD,IG v3.3|Model v1.7,IG v3.3[6.2.1]|Model v1.7[2.2.2],IG v3.3[6.2.1][Specification]|Model v1.7[2.2.2][Table 2.2.2.1: -BDSYCD],"IG v3.3[6.2.1][Specification][Dictionary derived. Code for body system or organ class used by the sponsor from the coding dictionary (e.g., MedDRA). When using a multi-axial dictionary such as MedDRA, this should contain the SOC used for the sponsor's analyses and summary tables which may not necessarily be the primary SOC.]|Model v1.7[2.2.2][Table 2.2.2.1: -BDSYCD][Model:MedDRA System Organ Class code corresponding to --BODSYS assigned for analysis.]",,,,,,,,,,,,,
CG0037,3.4,1,EVT,"NOT(DS, DV, HO)  ",--BDSYCD,Primary SOC used for analysis,--SOCCD = --BDSYCD,IG v3.4|Model v2.0,Events,Specification|--BDSYCD,"IG v3.4[6.2.1][Specification][Dictionary derived. Code for the body system or organ class used by the sponsor. When using a multi-axial dictionary such as MedDRA, this should contain the SOC used for the sponsor's analyses and summary tables, which may not necessarily be the primary SOC.]|Model v2.0[Events][--BDSYCD][MedDRA System Organ Class code corresponding to --BODSYS assigned for analysis.]",IG cited guidance updated and switched order of variables in rule. Model reference updated to current style. Switched the order of the variables around the equals sign in the rule to be consistent with how the rule reads for v3.2 and v3.3.,,,,,,,,,,,,
CG0039,3.2,1,EVT,"NOT(DS, DV, HO)",--BODSYS,Primary SOC used for analysis,--BODSYS = --SOC,IG v3.2|Model v1.4,IG v3.2[6.2 AE]|Model v1.4[2.2.2],IG v3.2[6.2 AE][Specification]|Model v1.4[2.2.2][Table 2.2.2: --BODSYS],"IG v3.2[6.2 AE][Specification][Dictionary derived. Body system or organ class used by the sponsor from the coding dictionary (e.g., MedDRA). When using a multi-axial dictionary such as MedDRA, this should contain the SOC used for the sponsor's analyses and summary tables which may not necessarily be the primary SOC.]|Model v1.4[2.2.2][Table 2.2.2: --BODSYS][Model: Body system or system organ class assigned for analysis from a standard hierarchy (e.g. MedDRA) associated with an event.]",,,,,,,,,,,,,
CG0039,3.3,1,EVT,"NOT(DS, DV, HO)",--BODSYS,Primary SOC used for analysis,--BODSYS = --SOC,IG v3.3|Model v1.7,IG v3.3[6.2.1]|Model v1.7[2.2.2],IG v3.3[6.2.1][Specification]|Model v1.7[2.2.2][Table 2.2.2.1: --BODSYS],"IG v3.3[6.2.1][Specification][Dictionary derived. Body system or organ class used by the sponsor from the coding dictionary (e.g., MedDRA). When using a multi-axial dictionary such as MedDRA, this should contain the SOC used for the sponsor's analyses and summary tables which may not necessarily be the primary SOC.]|Model v1.7[2.2.2][Table 2.2.2.1: --BODSYS][Model: Body system or system organ class assigned for analysis from a standard hierarchy (e.g. MedDRA) associated with an event.]",,,,,,,,,,,,,
CG0039,3.4,1,EVT,"NOT(DS, DV, HO)  ",--BODSYS,Primary SOC used for analysis,--BODSYS = --SOC,IG v3.4|Model v2.0,6.2.1|Events,Specification|--BODSYS,"IG v3.4[6.2.1][Specification][Dictionary derived. Body system or organ class used by the sponsor from the coding dictionary (e.g., MedDRA). When using a multi-axial dictionary such as MedDRA, this should contain the SOC used for the sponsor's analyses and summary tables which may not necessarily be the primary SOC.]|Model v2.0[Events][--BODSYS][Body system or system organ class assigned for analysis from a standard hierarchy (e.g. MedDRA) associated with an event.]",Text for cited guidance was slightly modified in SDTMIG v3.4. Model reference updated to current style.,,,,,,,,,,,,
CG0040,3.2,1,EVT,AE,AEOCCUR,,AEOCCUR not present in dataset,IG v3.2,6.2,Assumption 8,"The following Qualifiers would not be used in AE: --OCCUR, --STAT, and--REASND. They are the only Qualifiers from the SDTM Events Class not in the AE domain. They are not permitted because the AE domain contains only records for adverse events that actually occurred.",,,,,,,,,,,,,
CG0040,3.3,1,EVT,AE,AEOCCUR,,AEOCCUR not present in dataset,IG v3.3,6.2.1,Assumption 9,"The following Qualifiers would not be used in AE: --OCCUR, --STAT, and--REASND. They are the only Qualifiers from the SDTM Events Class not in the AE domain. They are not permitted because the AE domain contains only records for adverse events that actually occurred.",,,,,,,,,,,,,
CG0040,3.4,1,EVT,AE,AEOCCUR,,AEOCCUR not present in dataset,IG v3.4,6.2.1,Assumption 9,"The following Qualifiers would not be used in AE: --OCCUR, --STAT, and--REASND. They are the only Qualifiers from the SDTM Events Class not in the AE domain. They are not permitted because the AE domain contains only records for adverse events that actually occurred.",No Change,,,,,,,,,,,,
CG0041,3.2,1,EVT,AE,AESER,AESCAN = 'Y' or AESCONG = 'Y' or AESDISAB = 'Y' or AESDTH = 'Y' or AESHOSP = 'Y' or AESLIFE = 'Y' or AESOD = 'Y' or AESMIE = 'Y',AESER = 'Y',IG v3.2,6.2,Assumption 6a,"If categories of serious events are collected secondarily to a leading question, as in the example below, the values of the variables that capture reasons an event is considered serious (i.e., AESCAN, AESCONG, etc.) may be null. For example, if Serious is answered ""No, "" the values for these variables may be null. However, if Serious is answered ""Yes, "" at least one of them will have a ""Y"" response.",,,,,,,,,,,,,
CG0041,3.3,1,EVT,AE,AESER,AESCAN = 'Y' or AESCONG = 'Y' or AESDISAB = 'Y' or AESDTH = 'Y' or AESHOSP = 'Y' or AESLIFE = 'Y' or AESOD = 'Y' or AESMIE = 'Y',AESER = 'Y',IG v3.3,6.2.1,Assumption 6a,"If categories of serious events are collected secondarily to a leading question, as in the example below, the values of the variables that capture reasons an event is considered serious (i.e., AESCAN, AESCONG, etc.) may be null. For example, if Serious is answered ""No, "" the values for these variables may be null. However, if Serious is answered ""Yes, "" at least one of them will have a ""Y"" response.",,,,,,,,,,,,,
CG0041,3.4,1,EVT,AE,AESER,AESCAN = 'Y' or AESCONG = 'Y' or AESDISAB = 'Y' or AESDTH = 'Y' or AESHOSP = 'Y' or AESLIFE = 'Y' or AESOD = 'Y' or AESMIE = 'Y',AESER = 'Y',IG v3.4,6.2.1,Assumption 6a,"If categories of serious events are collected secondarily to a leading question, as in the example below, the values of the variables that capture reasons an event is considered serious (i.e., AESCAN, AESCONG, etc.) may be null. For example, if Serious is answered ""No, "" the values for these variables may be null. However, if Serious is answered ""Yes, "" at least one of them will have a ""Y"" response.",No Change,,,,,,,,,,,,
CG0042,3.2,1,EVT,AE,AESER,AESCAN ^= 'Y' and AESCONG ^= 'Y' and AESDISAB ^= 'Y' and AESDTH ^= 'Y' and AESHOSP ^= 'Y' and AESLIFE ^= 'Y' and AESOD ^= 'Y' and AESMIE ^= 'Y',AESER = 'N',IG v3.2,6.2,Assumption 6a,"If categories of serious events are collected secondarily to a leading question, as in the example below, the values of the variables that capture reasons an event is considered serious (i.e., AESCAN, AESCONG, etc.) may be null. For example, if Serious is answered ""No, "" the values for these variables may be null. However, if Serious is answered ""Yes, "" at least one of them will have a ""Y"" response.",,,,,,,,,,,,,
CG0042,3.3,1,EVT,AE,AESER,AESCAN ^= 'Y' and AESCONG ^= 'Y' and AESDISAB ^= 'Y' and AESDTH ^= 'Y' and AESHOSP ^= 'Y' and AESLIFE ^= 'Y' and AESOD ^= 'Y' and AESMIE ^= 'Y',AESER = 'N',IG v3.3,6.2.1,Assumption 6a,"If categories of serious events are collected secondarily to a leading question, as in the example below, the values of the variables that capture reasons an event is considered serious (i.e., AESCAN, AESCONG, etc.) may be null. For example, if Serious is answered ""No, "" the values for these variables may be null. However, if Serious is answered ""Yes, "" at least one of them will have a ""Y"" response.",,,,,,,,,,,,,
CG0042,3.4,1,EVT,AE,AESER,AESCAN ^= 'Y' and AESCONG ^= 'Y' and AESDISAB ^= 'Y' and AESDTH ^= 'Y' and AESHOSP ^= 'Y' and AESLIFE ^= 'Y' and AESOD ^= 'Y' and AESMIE ^= 'Y',AESER = 'N',IG v3.4,6.2.1,Assumption 6a,"If categories of serious events are collected secondarily to a leading question, as in the example below, the values of the variables that capture reasons an event is considered serious (i.e., AESCAN, AESCONG, etc.) may be null. For example, if Serious is answered ""No, "" the values for these variables may be null. However, if Serious is answered ""Yes, "" at least one of them will have a ""Y"" response.",No Change,,,,,,,,,,,,
CG0043,3.2,1,EVT,AE,AESMIE,Record present in SUPPAE where SUPPAE.QNAM=AESOSP,AESMIE = 'Y',IG v3.2,6.2,Assumption 6c,"When a description of Other Medically Important Serious Adverse Events category is collected on a CRF, sponsors should place the description in the SUPPAE dataset using the standard supplemental qualifier name code AESOSP.",,,,,,,,,,,,,
CG0043,3.3,1,EVT,AE,AESMIE,Record present in SUPPAE where SUPPAE.QNAM=AESOSP,AESMIE = 'Y',IG v3.3,6.2.1,Assumption 6c,"When a description of Other Medically Important Serious Adverse Events category is collected on a CRF, sponsors should place the description in the SUPPAE dataset using the standard supplemental qualifier name code AESOSP.",,,,,,,,,,,,,
CG0043,3.4,1,EVT,AE,AESMIE,Record present in SUPPAE where SUPPAE.QNAM=AESOSP,AESMIE = 'Y',IG v3.4,6.2.1,Asumtpion 6c,"When a description of Other Medically Important Serious Adverse Events category is collected on a CRF, sponsors should place the description in the SUPPAE dataset using the standard supplemental qualifier name code AESOSP.",No Change,,,,,,,,,,,,
CG0044,3.2,1,EVT,AE,AESTAT,,AESTAT not present in dataset,IG v3.2,6.2,Assumption 8,"The following Qualifiers would not be used in AE: --OCCUR, --STAT, and--REASND. They are the only Qualifiers from the SDTM Events Class not in the AE domain. They are not permitted because the AE domain contains only records for adverse events that actually occurred.",,,,,,,,,,,,,
CG0044,3.3,1,EVT,AE,AESTAT,,AESTAT not present in dataset,IG v3.3,6.2.1,Assumption 9,"The following Qualifiers would not be used in AE: --OCCUR, --STAT, and--REASND. They are the only Qualifiers from the SDTM Events Class not in the AE domain. They are not permitted because the AE domain contains only records for adverse events that actually occurred.",,,,,,,,,,,,,
CG0044,3.4,1,EVT,AE,AESTAT,,AESTAT not present in dataset,IG v3.4,6.2.1,Assumption 9,"The following Qualifiers would not be used in AE: --OCCUR, --STAT, and--REASND. They are the only Qualifiers from the SDTM Events Class not in the AE domain. They are not permitted because the AE domain contains only records for adverse events that actually occurred.",No Change,,,,,,,,,,,,
CG0045,3.2,1,ALL,ALL,--ENRTPT,--ENTPT ^= null,--ENRTPT ^= null,Model v1.4,2.2.5 Timing Variables for All Classes,Specification,(--ENRTPT) Identifies the end of the observation as being before or after the sponsor-defined reference time point defined by variable --ENTPT.,,,,,,,,,,,,,
CG0045,3.3,1,ALL,ALL,--ENRTPT,--ENTPT ^= null,--ENRTPT ^= null,Model v1.7,2.2.5 Timing Variables for All Classes,Table 2.2.5.1: --ENRTPT,Identifies the end of the observation as being before or after the sponsor-defined reference time point defined by variable --ENTPT.,,,,,,,,,,,,,
CG0045,3.4,1,ALL,ALL,--ENRTPT,--ENTPT ^= null,--ENRTPT ^= null,Model v2.0,Timing,--ENTPT,The description or date and/or time of a time point that acts as a fixed reference for characterizing the end of an observation. This is the sponsor-defined reference point referred to by --ENRTPT.,Cited guidance updated. Reference to model section and item updated per new style.,,,,,,,,,,,,
CG0046,3.2,1,ALL,ALL,--ENTPT,--ENRTPT ^= null,--ENTPT ^= null,Model v1.4,2.2.5 Timing Variables for All Classes,Specification,(--ENRTPT) Identifies the end of the observation as being before or after the sponsor-defined reference time point defined by variable --ENTPT.,,,,,,,,,,,,,
CG0046,3.3,1,ALL,ALL,--ENTPT,--ENRTPT ^= null,--ENTPT ^= null,Model v1.7,2.2.5 Timing Variables for All Classes,Table 2.2.5.1: --ENTPT,Identifies the end of the observation as being before or after the sponsor-defined reference time point defined by variable --ENTPT.,,,,,,,,,,,,,
CG0046,3.4,1,ALL,ALL,--ENTPT,--ENRTPT ^= null,--ENTPT ^= null,Model v2.0,Timing,--ENRTPT,The characterization of the end of an observation relative to a reference time point. The sponsor-defined reference time point is in --ENTPT.,Cited guidance updated. Reference to model section and item updated per new style.,,,,,,,,,,,,
CG0047,3.2,1,EVT,ALL,--MODIFY,--TERM modified for coding,--MODIFY ^= null,Model v1.4,2.2.2,Table 2.2.2,"If the value for --TERM is modified for coding purposes, then the modified text is placed here.",,,,,,,,,,,,,
CG0047,3.3,1,EVT,ALL,--MODIFY,--TERM modified for coding,--MODIFY ^= null,Model v1.7,2.2.2,Table 2.2.2.1,"If the value for --TERM is modified for coding purposes, then the modified text is placed here.",,,,,,,,,,,,,
CG0047,3.4,1,EVT,ALL,--MODIFY,--TERM modified for coding,--MODIFY ^= null,Model v2.0,Events,--MODIFY,A value which represents an alteration to a collected value for coding purposes. Synonym Qualifier of --TERM.,Cited guidance updated. Reference to model section and item updated per new style.,,,,,,,,,,,,
CG0049,3.2,1,EVT,ALL,--PTCD,,--DECOD and --PTCD have a one-to-one relationship,Model v1.4,Model v1.4[2.2.2],Model v1.4[2.2.2][--DECOD]|Model v1.4[2.2.2][--PTCD],"Model v1.4[2.2.2][--DECOD][Dictionary or sponsor-defined derived text description of the topic variable, --TERM, or the modified topic variable (--MODIFY), if applicable. Equivalent to the Preferred Term (PT in MedDRA).]|Model v1.4[2.2.2][--PTCD][MedDRA Preferred Term code.]",Updated document reference.,,,,,,,,,,,,
CG0049,3.3,1,EVT,ALL,--PTCD,,--DECOD and --PTCD have a one-to-one relationship,Model v1.7,Model v1.7[2.2.2],Model v1.7[2.2.2][--DECOD]|Model v1.7[2.2.2][--PTCD],"Model v1.7[2.2.2][--DECOD][Dictionary or sponsor-defined derived text description of the topic variable, --TERM, or the modified topic variable (--MODIFY), if applicable. Equivalent to the Preferred Term (PT in MedDRA).]|Model v1.7[2.2.2][--PTCD][MedDRA Preferred Term code.]",,,,,,,,,,,,,
CG0049,3.4,1,EVT,ALL,--PTCD,,--DECOD and --PTCD have a one-to-one relationship,Model v2.0,Events,--DECOD|--PTCD,--DECOD[Standardized or dictionary-derived text for the description of an event or intervention. Equivalent to the Preferred Term (PT in MedDRA).]|--PTCD[The preferred term code assigned to the event from MedDRA.],Cited guidance updated. Reference to model section and item updated per new style.,,,,,,,,,,,,
CG0050,3.2,1,EVT,ALL,--PTCD,--PTCD ^= null,--DECOD ^= null,Model v1.4,2.2.2,--PTCD,MedDRA Preferred Term code.,Updated document reference.,,,,,,,,,,,,
CG0050,3.3,1,EVT,ALL,--PTCD,--PTCD ^= null,--DECOD ^= null,Model v1.7,2.2.2,--PTCD,MedDRA Preferred Term code.,,,,,,,,,,,,,
CG0050,3.4,1,EVT,ALL,--PTCD,--PTCD ^= null,--DECOD ^= null,Model v2.0,Events,--PTCD,The preferred term code assigned to the event from MedDRA.,Cited guidance updated. Reference to model section and item updated per new style.,,,,,,,,,,,,
CG0053,3.2,1,"EVT, INT","NOT(DS, DV, EX)",--REASND,--PRESP not present in dataset,--REASND not present in dataset,Model v1.4,2.2.1 (Interventions )|2.2.2 (Events),,"(--PRESP/Events) Used to indicate whether the event describe by --TERM was pre-specified on a CRF. Value is Y for pre-specified events, null for spontaneously reported events. (--PRESP/Interventions) Used when a specific intervention is pre-specified on a CRF. Values should be ""Y"" or null. (--REASND) Used in conjunction with --STAT when value is NOT DONE","Updated spacing in Class, no other material change.",,,,,,,,,,,,
CG0053,3.3,1,"EVT, INT","NOT(DS, DV, EX)",--REASND,--PRESP not present in dataset,--REASND not present in dataset,Model v1.7,2.2.1 (Interventions )|2.2.2 (Events),,"(--PRESP/Events) Used to indicate whether the event describe by --TERM was pre-specified on a CRF. Value is Y for pre-specified events, null for spontaneously reported events. (--PRESP/Interventions) Used when a specific intervention is pre-specified on a CRF. Values should be ""Y"" or null. (--REASND) Used in conjunction with --STAT when value is NOT DONE","Updated spacing in Class, no other material change.",,,,,,,,,,,,
CG0053,3.4,1,"EVT, INT","NOT(DS, DV, EX)",--REASND,--PRESP not present in dataset,--REASND not present in dataset,Model v2.0,Events|Interventions,--PRESP|--STAT,--PRESP[An indication that the event or intervention was prospectively stated or detailed on the CRF.]|--OCCUR[An indication as to whether a prespecified event or intervention has occurred.],Cited guidance updated. Reference to model section and item updated per new style. ,,,,,,,,,,,,
CG0056,3.2,1,"EVT, INT","NOT(DS, DV, EX)",--STAT,--PRESP not present in dataset,--STAT not present in dataset,Model v1.4,Model v1.4[2.2.1 (Interventions )]|Model v1.4[2.2.2 (Events)],,"Model v1.4[2.2.1 (Interventions )][ (--PRESP Used when a specific intervention is pre-specified on a CRF. Values should be ""Y"" or null.]|Model v1.4[2.2.2 (Events)][--PRESP Used to indicate whether the event describe by --TERM was pre-specified on a CRF. Value is Y for pre-specified events, null for spontaneously reported events. --STAT Used to indicate when a question about the occurrence of a pre-specified event was not answered. Should be null or hav a value of NOT DONE]",,,,,,,,,,,,,
CG0056,3.3,1,"EVT, INT","NOT(DS, DV, EX)",--STAT,--PRESP not present in dataset,--STAT not present in dataset,Model v1.7,Model v1.7[2.2.1 (Interventions )]|Model v1.7[2.2.2 (Events)],,"Model v1.7[2.2.1 (Interventions )][ (--PRESP Used when a specific intervention is pre-specified on a CRF. Values should be ""Y"" or null.]|Model v1.7[2.2.2 (Events)][--PRESP Used to indicate whether the event describe by --TERM was pre-specified on a CRF. Value is Y for pre-specified events, null for spontaneously reported events. --STAT Used to indicate when a question about the occurrence of a pre-specified event was not answered. Should be null or hav a value of NOT DONE]",,,,,,,,,,,,,
CG0056,3.4,1,"EVT, INT","NOT(DS, DV, EX)",--STAT,--PRESP not present in dataset,--STAT not present in dataset,Model v2.0,Events|Interventions,--PRESP|--STAT,Events[--PRESP][An indication that the event was prospectively stated or detailed on the CRF.]|Events[--STAT][Used to indicate when a question about the occurrence of a prespecified event was not answered.]|Interventions[--PRESP][An indication that the intervention was prospectively stated or detailed on the CRF.]|Interventions[--STAT][Used to indicate when a question about the occurrence of a prespecified intervention was not answered.],Cited guidance updated. Reference to model section and item updated per new style. ,,,,,,,,,,,,
CG0057,3.2,1,ALL,ALL,--ENRTPT,--ENTPT present in dataset,--ENRTPT present in dataset,Model v1.4,2.2.5 Timing Variables for All Classes,Specification,(--ENRTPT) Identifies the end of the observation as being before or after the sponsor-defined reference time point defined by variable --ENTPT.,,,,,,,,,,,,,
CG0057,3.3,1,ALL,ALL,--ENRTPT,--ENTPT present in dataset,--ENRTPT present in dataset,Model v1.7,2.2.5 Timing Variables for All Classes,Table 2.2.5.1: --ENRTPT,Identifies the end of the observation as being before or after the sponsor-defined reference time point defined by variable --ENTPT.,,,,,,,,,,,,,
CG0057,3.4,1,ALL,ALL,--ENRTPT,--ENTPT present in dataset,--ENRTPT present in dataset,Model v2.0,Timing,--ENRTPT,The characterization of the end of an observation relative to a reference time point. The sponsor-defined reference time point is in --ENTPT.,Cited guidance updated. Reference to model section and item updated per new style. ,,,,,,,,,,,,
CG0058,3.2,1,ALL,ALL,--ENTPT,--ENRTPT present in dataset,--ENTPT present in dataset,Model v1.4,2.2.5 Timing Variables for All Classes,Specification,"(--ENTPT) Description or date/time in ISO 8601 or other character format of the sponsor-defined reference point referred to by --ENRTPT. Examples: ""2003-12-25"" or ""VISIT 2"".",,,,,,,,,,,,,
CG0058,3.3,1,ALL,ALL,--ENTPT,--ENRTPT present in dataset,--ENTPT present in dataset,Model v1.7,2.2.5 Timing Variables for All Classes,Table 2.2.5.1: --ENTPT,"Description or date/time in ISO 8601 or other character format of the sponsor-defined reference point referred to by --ENRTPT. Examples: ""2003-12-25"" or ""VISIT 2"".",,,,,,,,,,,,,
CG0058,3.4,1,ALL,ALL,--ENTPT,--ENRTPT present in dataset,--ENTPT present in dataset,Model v2.0,Timing,--ENTPT,The description or date and/or time of a time point that acts as a fixed reference for characterizing the end of an observation. This is the sponsor-defined reference point referred to by --ENRTPT.,Cited guidance updated. Reference to model section and item updated per new style.,,,,,,,,,,,,
CG0059,3.2,1,ALL,ALL,--STRTPT,--STTPT ^= null,--STRTPT ^= null,Model v1.4,2.2.5 Timing Variables for All Classes,Specification,(--STRTPT) Identifies the start of the observation as being before or after the sponsor-defined reference time point defined by variable --STTPT.,,,,,,,,,,,,,
CG0059,3.3,1,ALL,ALL,--STRTPT,--STTPT ^= null,--STRTPT ^= null,Model v1.7,2.2.5 Timing Variables for All Classes,Table 2.2.5.1: --STRTPT,Identifies the start of the observation as being before or after the sponsor-defined reference time point defined by variable --STTPT.,,,,,,,,,,,,,
CG0059,3.4,1,ALL,ALL,--STRTPT,--STTPT ^= null,--STRTPT ^= null,Model v2.0,Timing,--STRTPT,The characterization of the start of an observation relative to a reference time point. The sponsor-defined reference time point is in --STTPT.,Cited guidance updated. Reference to model section and item updated per new style. ,,,,,,,,,,,,
CG0060,3.2,1,ALL,ALL,--STRTPT,--STTPT present in dataset,--STRTPT present in dataset,Model v1.4,2.2.5 Timing Variables for All Classes,Specification,(--STRTPT) Identifies the start of the observation as being before or after the sponsor-defined reference time point defined by variable --STTPT.,,,,,,,,,,,,,
CG0060,3.3,1,ALL,ALL,--STRTPT,--STTPT present in dataset,--STRTPT present in dataset,Model v1.7,2.2.5 Timing Variables for All Classes,Table 2.2.5.1: --STRTPT,Identifies the start of the observation as being before or after the sponsor-defined reference time point defined by variable --STTPT.,,,,,,,,,,,,,
CG0060,3.4,1,ALL,ALL,--STRTPT,--STTPT present in dataset,--STRTPT present in dataset,Model v2.0,Timing,--STRTPT,The characterization of the start of an observation relative to a reference time point. The sponsor-defined reference time point is in --STTPT.,Cited guidance updated. Reference to model section and item updated per new style. ,,,,,,,,,,,,
CG0061,3.2,1,ALL,ALL,--STTPT,--STRTPT ^= null,--STTPT ^= null,Model v1.4,2.2.5 Timing Variables for All Classes,Specification,"(--STTPT) Description or date/time in ISO 8601 or other character format of the sponsor-defined reference point referred to by --STRTPT. Examples: ""2003-12-15"" or ""VISIT 1"".",,,,,,,,,,,,,
CG0061,3.3,1,ALL,ALL,--STTPT,--STRTPT ^= null,--STTPT ^= null,Model v1.7,2.2.5 Timing Variables for All Classes,Table 2.2.5.1: --STTPT,"Description or date/time in ISO 8601 or other character format of the sponsor-defined reference point referred to by --STRTPT. Examples: ""2003-12-15"" or ""VISIT 1"".",,,,,,,,,,,,,
CG0061,3.4,1,ALL,ALL,--STTPT,--STRTPT ^= null,--STTPT ^= null,Model v2.0,Timing,--STTPT,The description or date and/or time of a time point that acts as a fixed reference for characterizing the start of an observation. This is the sponsor-defined reference point referred to by --STRTPT.,Cited guidance updated. Reference to model section and item updated per new style. ,,,,,,,,,,,,
CG0062,3.2,1,ALL,ALL,--STTPT,--STRTPT present in dataset,--STTPT present in dataset,Model v1.4,2.2.5 Timing Variables for All Classes,Specification,"(--STTPT) Description or date/time in ISO 8601 or other character format of the sponsor-defined reference point referred to by --STRTPT. Examples: ""2003-12-15"" or ""VISIT 1"".",,,,,,,,,,,,,
CG0062,3.3,1,ALL,ALL,--STTPT,--STRTPT present in dataset,--STTPT present in dataset,Model v1.7,2.2.5 Timing Variables for All Classes,Table 2.2.5.1: --STTPT,"Description or date/time in ISO 8601 or other character format of the sponsor-defined reference point referred to by --STRTPT. Examples: ""2003-12-15"" or ""VISIT 1"".",,,,,,,,,,,,,
CG0062,3.4,1,ALL,ALL,--STTPT,--STRTPT present in dataset,--STTPT present in dataset,Model v2.0,Timing,--STTPT,The description or date and/or time of a time point that acts as a fixed reference for characterizing the start of an observation. This is the sponsor-defined reference point referred to by --STRTPT.,Cited guidance updated. Reference to model section and item updated per new style. ,,,,,,,,,,,,
CG0063,3.2,1,EVT,DS,EPOCH,Multiple events per subject where DSCAT = 'DISPOSITION EVENT',EPOCH ^= null,IG v3.2,6.2,DS Assumption 3.C:,"A sponsor may collect one disposition event for the trial as a whole, or they may collect disposition for each Epoch of the trial. When disposition is collected for each Epoch, the variable EPOCH should be included in the DS dataset. When EPOCH is populated for disposition events (records with DSCAT = DISPOSITION EVENT), EPOCH is the name of the Epoch for the disposition event described in the record. This is a subtly different meaning from that of EPOCH when it is used in other general-observation-class domains, where EPOCH, as a Timing variable, is the name of the Epoch during which --STDTC or --DTC falls. The values of EPOCH are drawn from the Trial Arms domain, Section 7.2 - Experimental Design: Trial Arms (TA)",,,,,,,,,,,,,
CG0065,3.2,1,EVT,DS,DSDECOD,DSTERM = 'COMPLETED',DSDECOD = 'COMPLETED',IG v3.2,6.2,Assumption 3b,"b. When DSTERM = 'COMPLETED', DSDECOD = 'COMPLETED'.",,,,,,,,,,,,,
CG0065,3.3,1,EVT,DS,DSDECOD,DSTERM = 'COMPLETED',DSDECOD = 'COMPLETED',IG v3.3,6.2.3,Assumption 3b,"b. When DSTERM = 'COMPLETED', DSDECOD = 'COMPLETED'.",,,,,,,,,,,,,
CG0065,3.4,1,EVT,DS,DSDECOD,DSTERM = 'COMPLETED',DSDECOD = 'COMPLETED',IG v3.4,6.2.3,Assumption 3.b.i.,"When DSTERM = ""COMPLETED"", DSDECOD is the term ""COMPLETED"" from the controlled terminology codelist NCOMPLT.",No change,,,,,,,,,,,,
CG0066,3.2,1,EVT,DS,DSDECOD,DSCAT = 'PROTOCOL MILESTONE',DSTERM = DSDECOD,IG v3.2,6.2,Assumption 3d,"d. When DSCAT='PROTOCOL MILESTONE', DSTERM and DSDECOD will contain the same value drawn from the sponsor's controlled terminology.","Deprecated for v3.3: 6.2 Assumption 3d When DSCAT=""PROTOCOL MILESTONE"", DSTERM contains the verbatim (as collected) and/or standardized text, DSDECOD will contain the standard term from a controlled terminology list. For example, if the verbatim of DSTERM is ""INFORMED CONSENT FOR BIOMARKER SUB-STUDY OBTAINED"", then its corresponding DSDECOD would be standardized to ""INFORMED CONSENT OBTAINED"". If deemed necessary, DSSCAT can also be used as a further logical grouping using sponsor controlled terminology.",,,,,,,,,,,,
CG0067,3.2,1,EVT,DS,DSDECOD,SS.SSSTRESC = 'DEAD',DSDECOD = 'DEATH',IG v3.2,6.3,Assumption 2,"For example, if a subject's Survival Status is ""DEAD"", the date of death must be stored in DM and within a final disposition record in DS.",,,,,,,,,,,,,
CG0067,3.3,1,EVT,DS,DSDECOD,SS.SSSTRESC = 'DEAD',DSDECOD = 'DEATH',IG v3.3,6.3.15,Assumption 1,"For example, if a subject's Survival Status is ""DEAD"", the date of death must be stored in DM and within a final disposition record in DS.",,,,,,,,,,,,,
CG0067,3.4,1,EVT,DS,DSDECOD,SS.SSSTRESC = 'DEAD',DSDECOD = 'DEATH',IG v3.4,6.3.11,Assumption 1,"For example, if a subject's survival status is ""DEAD"", the date of death must be stored in DM and within a final disposition record in DS.",Cited guidance section updated.,,,,,,,,,,,,
CG0068,3.2,1,EVT,DS,DSSTDTC,Multiple informed consents obtained and DSDECOD = 'INFORMED CONSENT OBTAINED',"For each subject, earliest DSSTDTC = DM.RFICDTC",IG v3.2,5,Specification,"Date/time of informed consent in ISO 8601 character format. This will be the same as the date of informed consent in the Disposition domain, if that protocol milestone is documented.",,,,,,,,,,,,,
CG0068,3.3,1,EVT,DS,DSSTDTC,Multiple informed consents obtained and DSDECOD = 'INFORMED CONSENT OBTAINED',"For each subject, earliest DSSTDTC = DM.RFICDTC",IG v3.3,5.2,Specification,"Date/time of informed consent in ISO 8601 character format. This will be the same as the date of informed consent in the Disposition domain, if that protocol milestone is documented.",,,,,,,,,,,,,
CG0068,3.4,1,EVT,DS,DSSTDTC,Multiple informed consents obtained and DSDECOD = 'INFORMED CONSENT OBTAINED',"For each subject, earliest DSSTDTC = DM.RFICDTC",IG v3.4,5.2,Specification,"Date/time of informed consent in ISO 8601 character format. This will be the same as the date of informed consent in the Disposition domain, if that protocol milestone is documented.",No Change,,,,,,,,,,,,
CG0069,3.2,1,EVT,DS,DSSTDTC,DSDECOD = 'DEATH',DSSTDTC = DM.DTHDTC,IG v3.2,5,Specification,"Date/time of death for any subject who died, in ISO 8601 format. Should represent the date/time that is captured in the clinical-trial database.",,,,,,,,,,,,,
CG0069,3.3,1,EVT,DS,DSSTDTC,DSDECOD = 'DEATH',DSSTDTC = DM.DTHDTC,IG v3.3,5.2,Specification,"Date/time of death for any subject who died, in ISO 8601 format. Should represent the date/time that is captured in the clinical-trial database.",,,,,,,,,,,,,
CG0069,3.4,1,EVT,DS,DSSTDTC,DSDECOD = 'DEATH',DSSTDTC = DM.DTHDTC,IG v3.4,5.2,Specification,"Date/time of death for any subject who died, in ISO 8601 format. Should represent the date/time that is captured in the clinical-trial database.",No Change,,,,,,,,,,,,
CG0071,3.2,1,EVT,DS,DSTERM,DSCAT = 'DISPOSITION EVENT',DSTERM = 'COMPLETED' or the reason for discontinuation,IG v3.2,6.2,Assumption 3a,"When DSCAT='DISPOSITION EVENT"", DSTERM contains either ""COMPLETED"" or, if the subject did not complete, specific verbatim information about the disposition event",Corrected source text reference.,,,,,,,,,,,,
CG0071,3.3,1,EVT,DS,DSTERM,DSCAT = 'DISPOSITION EVENT',DSTERM = 'COMPLETED' or the reason for discontinuation,IG v3.3,6.2.3,Assumption 3b,"When DSCAT = ""DISPOSITION EVENT"" DSTERM contains either ""COMPLETED"" or, if the subject did not complete, specific verbatim information about the reason for non-completion",Corrected source text reference.,,,,,,,,,,,,
CG0071,3.4,1,EVT,DS,DSTERM,DSCAT = 'DISPOSITION EVENT',DSTERM = 'COMPLETED' or the reason for discontinuation,IG v3.4,6.2.4,Assumption 3b,"When DSCAT = ""DISPOSITION EVENT"" DSTERM contains either ""COMPLETED"" or, if the subject did not complete, specific verbatim information about the reason for non-completion",Cited guidance section updated.,,,,,,,,,,,,
CG0073,3.2,2,EVT,DS,EPOCH,DSCAT = 'PROTOCOL MILESTONE',EPOCH = null,IG v3.2,6.2,Assumption 3d,"When DSCAT='PROTOCOL MILESTONE', DSTERM and DSDECOD will contain the same value drawn from the sponsor's controlled terminology. Examples of controlled terms include 'INFORMED CONSENT OBTAINED' and 'RANDOMIZED.' EPOCH should not be populated when DSCAT = ""PROTOCOL MILESTONE"".","Updated Condition from ""DSCAT ^= 'DISPOSTION EVENT'"".  It was noted that there is no specific prohibition disallowing Other Events from using EPOCH.",,,,,,,,,,,,
CG0075,3.2,1,EVT,DV,DVSTDTC,,DVSTDTC >= DM.RFICDTC,IG v3.2,6.2,,The intent of the domain is to capture protocol violations and deviations during the course of the study and will store only those criteria violation by or deviated from by the subject and not a response to each violation or deviation.,,,,,,,,,,,,,
CG0075,3.3,1,EVT,DV,DVSTDTC,,DVSTDTC >= DM.RFICDTC,IG v3.3,6.2.4,Assumption 1,The intent of the domain model is to capture protocol deviations that occurred during the course of the study (see ICH E3: Section 10.2 at http://www.ich.org/fileadmin/Public_Web_Site/ICH_Products/Guidelines/Efficacy/E3/E3_Guideline.pdf). Usually these are deviations that occur after the subject has been randomized or received the first treatment.,Cited guidance item added.,,,,,,,,,,,,
CG0075,3.4,1,EVT,DV,DVSTDTC,,DVSTDTC >= DM.RFICDTC,IG v3.4,6.2.7,Assumption 1,The intent of the domain model is to capture protocol deviations that occurred during the course of the study (see ICH E3: Section 10.2 at http://www.ich.org/fileadmin/Public_Web_Site/ICH_Products/Guidelines/Efficacy/E3/E3_Guideline.pdf). Usually these are deviations that occur after the subject has been randomized or received the first treatment.,Cited guidance section updated.,,,,,,,,,,,,
CG0076,3.2,1,EVT,DV,GEN,,Event is not derived,IG v3.2,6.2,Assumption 1,The DV domain is an Events model for collected protocol deviations and not for derived protocol deviations that are more likely to be part of analysis,,,,,,,,,,,,,
CG0076,3.3,1,EVT,DV,GEN,,Event is not derived,IG v3.3,6.2.4,Assumption 1,The DV domain is an Events model for collected protocol deviations and not for derived protocol deviations that are more likely to be part of analysis.,,,,,,,,,,,,,
CG0076,3.4,1,EVT,DV,GEN,,Event is not derived,IG v3.4,6.2.7,Assumption 1,The DV domain is an Events model for collected protocol deviations and not for derived protocol deviations that are more likely to be part of analysis.,Cited guidance section updated.,,,,,,,,,,,,
CG0077,3.2,1,EVT,MH,MHCAT,MHCAT ^= null,MHCAT ^= the same value for all records,IG v3.2,6.2,Assumptions 3.a.i,"This categorization should not group all records (within the MH Domain) into one generic group such as ""Medical History"" or ""General Medical History"" because this is redundant information with the domain code. If no smaller categorization can be applied, then it is not necessary to include or populate this variable.",,,,,,,,,,,,,
CG0077,3.3,1,EVT,MH,MHCAT,MHCAT ^= null,MHCAT ^= the same value for all records,IG v3.3,6.2.6,Assumptions 3.a.1,"This categorization should not group all records (within the MH Domain) into one generic group such as ""Medical History"" or ""General Medical History"" because this is redundant information with the domain code. If no smaller categorization can be applied, then it is not necessary to include or populate this variable.",,,,,,,,,,,,,
CG0077,3.4,1,EVT,MH,MHCAT,MHCAT ^= null,MHCAT ^= the same value for all records,IG v3.4,6.2.6,Assumptions 3.a.1,"This categorization should not group all records (within the MH Domain) into one generic group such as ""Medical History"" or ""General Medical History"" because this is redundant information with the domain code. If no smaller categorization can be applied, then it is not necessary to include or populate this variable.",No change,,,,,,,,,,,,
CG0078,3.2,1,EVT,MH,MHENDTC,MHENDTC ^= null,MHENDTC < DM.RFSTDTC,IG v3.2,IG v3.2[2.6]|IG v3.2[4.1.2.6]|IG v3.2[6.2],,"IG v3.2[2.6][Section 2.6: Do not create separate domains based on time, rather represent both prior and current observations in a domain (e.g., CM for all non-study medications). Note that AE and MH are an exception to this best practice because of regulatory reporting needs.]|IG v3.2[4.1.2.6][Section 4.1.2.6, Item 2.B.3.A (Discussion of --CAT/--SCAT): Adverse Events (AE), Medical History (MH) and Clinical Events (CE), for example, are conceptually the same data, the only differences being when the event started relative to the study start and whether the event is considered a regulatory reportable adverse event in the study.]|IG v3.2[6.2][Domain Code Table: The medical history dataset includes the subject's prior history at the start of the trial.][MH: The medical history dataset includes the subject's prior history at the start of the trial.][Assumption 1:The Medical History dataset generally includes the subject's prior and concomitant conditions at the start of the trial.]",,,,,,,,,,,,,
CG0078,3.3,1,EVT,MH,MHENDTC,MHENDTC ^= null,MHENDTC < DM.RFSTDTC,IG v3.3,IG v3.3[2.6]|IG v3.3[4.2.6]|IG v3.3[6.2],,"IG v3.3[2.6][Do not create separate domains based on time; rather, represent both prior and current observations in a domain (e.g., CM for all non-study medications). Note that AE and MH are an exception to this best practice because of regulatory reporting needs]|IG v3.3[4.2.6][Item 2.B.3.A (Discussion of --CAT/--SCAT):  Adverse Events (AE), Medical History (MH), and Clinical Events (CE), for example, are conceptually the same data, the only differences being when the event started relative to the study start and whether the event is considered a regulatory reportable adverse event in the study.]|IG v3.3[6.2][Domain Code Table: The medical history dataset includes the subject's prior history at the start of the trial.][MH: The medical history dataset includes the subject's prior history at the start of the trial.]",Cited guidance updated.,,,,,,,,,,,,
CG0078,3.4,1,EVT,MH,MHENDTC,MHENDTC ^= null,MHENDTC < DM.RFSTDTC,IG v3.4,IG v3.4[2.6]|IG v3.4[4.2.6]|IG v3.4[6.2],|[4.2.6]Assumption 2.B.3.a.|,"IG v3.4[2.6][Do not create separate domains based on time; rather, represent both prior and current observations in a domain (e.g., CM for all non-study medications). Note that AE and MH are an exception to this best practice because of regulatory reporting needs]|IG v3.4[4.2.6][Item 2.B.3.a (Discussion of --CAT/--SCAT):  Adverse Events (AE), Medical History (MH), and Clinical Events (CE), for example, are conceptually the same data, the only differences being when the event started relative to the study start and whether the event is considered a regulatory reportable adverse event in the study.]|IG v3.4[6.2.6][MH Description: The medical history dataset includes the subject's prior history at the start of the trial.]",Cited guidance updated.,,,,,,,,,,,,
CG0079,3.2,1,EVT,MH,MHSTDTC,MHSTDTC ^= null,MHSTDTC < DM.RFSTDTC,IG v3.2,IG v3.2[2.6]|IG v3.2[4.1.2.6]|IG v3.2[6.2],,"IG v3.2[2.6][Section 2.6: Do not create separate domains based on time, rather represent both prior and current observations in a domain (e.g., CM for all non-study medications). Note that AE and MH are an exception to this best practice because of regulatory reporting needs.]|IG v3.2[4.1.2.6][Section 4.1.2.6, Item 2.B.3.A (Discussion of --CAT/--SCAT): Adverse Events (AE), Medical History (MH) and Clinical Events (CE), for example, are conceptually the same data, the only differences being when the event started relative to the study start and whether the event is considered a regulatory reportable adverse event in the study.]|IG v3.2[6.2][Domain Code Table: The medical history dataset includes the subject's prior history at the start of the trial.][MH: The medical history dataset includes the subject's prior history at the start of the trial.][Assumption 1:The Medical History dataset generally includes the subject's prior and concomitant conditions at the start of the trial.]",,,,,,,,,,,,,
CG0079,3.3,1,EVT,MH,MHSTDTC,MHSTDTC ^= null,MHSTDTC < DM.RFSTDTC,IG v3.3,IG v3.3[2.6]|IG v3.3[4.2.6]|IG v3.3[6.2],,"IG v3.3[2.6][Do not create separate domains based on time; rather, represent both prior and current observations in a domain (e.g., CM for all non-study medications). Note that AE and MH are an exception to this best practice because of regulatory reporting needs]|IG v3.3[4.2.6][Item 2.B.3.A (Discussion of --CAT/--SCAT):  Adverse Events (AE), Medical History (MH), and Clinical Events (CE), for example, are conceptually the same data, the only differences being when the event started relative to the study start and whether the event is considered a regulatory reportable adverse event in the study.]|IG v3.3[6.2][Domain Code Table: The medical history dataset includes the subject's prior history at the start of the trial.][MH: The medical history dataset includes the subject's prior history at the start of the trial.]",Cited guidance updated.,,,,,,,,,,,,
CG0079,3.4,1,EVT,MH,MHSTDTC,MHSTDTC ^= null,MHSTDTC < DM.RFSTDTC,IG v3.4,IG v3.3[2.6]|IG v3.3[4.2.6]|IG v3.3[6.2],,"IG v3.3[2.6][Do not create separate domains based on time; rather, represent both prior and current observations in a domain (e.g., CM for all non-study medications). Note that AE and MH are an exception to this best practice because of regulatory reporting needs]|IG v3.3[4.2.6][Item 2.B.3.A (Discussion of --CAT/--SCAT):  Adverse Events (AE), Medical History (MH), and Clinical Events (CE), for example, are conceptually the same data, the only differences being when the event started relative to the study start and whether the event is considered a regulatory reportable adverse event in the study.]|IG v3.3[6.2][Domain Code Table: The medical history dataset includes the subject's prior history at the start of the trial.][MH: The medical history dataset includes the subject's prior history at the start of the trial.]",Cited guidance updated.,,,,,,,,,,,,
CG0081,3.2,1,"EVT, INT","NOT(DS, DV, EX)",--STAT,--PRESP = 'Y' and --OCCUR = null,--STAT = 'NOT DONE',Model v1.4,Model v1.4[2.2.1 (Interventions )]|Model v1.4[2.2.2 (Events)],,"Model v1.4[2.2.1 (Interventions )][--PRESP: Used when a specific intervention is pre-specified on a CRF. Values should be ""Y"" or null.][--OCCUR: Used to record whether a pre-specified event occurred when information about the occurrence of a specific event is solicited.][--STAT: Used to indicate when a question about the occurrence of a pre-specified event was not answered. Should be null or hav a value of NOT DONE][--REASND: Used in conjunction with --STAT when value is NOT DONE]|Model v1.4[2.2.2 (Events)][--PRESP: Used to indicate whether the event describe by --TERM was pre-specified on a CRF. Value is Y for pre-specified events, null for spontaneously reported events.][--OCCUR: Used to record whether a pre-specified event occurred when information about the occurrence of a specific event is solicited.][--STAT: Used to indicate when a question about the occurrence of a pre-specified event was not answered . Should be null or hav a value of NOT DONE][--REASND: Used in conjunction with --STAT when value is NOT DONE]",,,,,,,,,,,,,
CG0081,3.3,1,"EVT, INT","NOT(DS, DV, EX)",--STAT,--PRESP = 'Y' and --OCCUR = null,--STAT = 'NOT DONE',Model v1.7,Model v1.7[2.2.1 (Interventions )]|Model v1.7[2.2.2 (Events)],,"Model v1.7[2.2.1 (Interventions )][--PRESP: Used when a specific intervention is pre-specified on a CRF. Values should be ""Y"" or null.][--OCCUR: Used to record whether a pre-specified event occurred when information about the occurrence of a specific event is solicited.][--STAT: Used to indicate when a question about the occurrence of a pre-specified event was not answered. Should be null or hav a value of NOT DONE][--REASND: Used in conjunction with --STAT when value is NOT DONE]|Model v1.7[2.2.2 (Events)][--PRESP: Used to indicate whether the event describe by --TERM was pre-specified on a CRF. Value is Y for pre-specified events, null for spontaneously reported events.][--OCCUR: Used to record whether a pre-specified event occurred when information about the occurrence of a specific event is solicited.][--STAT: Used to indicate when a question about the occurrence of a pre-specified event was not answered . Should be null or hav a value of NOT DONE][--REASND: Used in conjunction with --STAT when value is NOT DONE]",,,,,,,,,,,,,
CG0081,3.4,1,"EVT, INT","NOT(DS, DV, EX)",--STAT,--PRESP = 'Y' and --OCCUR = null,--STAT = 'NOT DONE',Model v2.0,Events|Interventions,--PRESP|--OCCUR|STAT,"Events[--PRESP][An indication that the event was prospectively stated or detailed on the CRF.]|Events|[--OCCUR][An indication as to whether a prespecified event has occurred.]|Events[--STAT][Used to indicate when a question about the occurrence of a prespecified event was not answered.]|Interventions[--PRESP][An indication that the intervention was prospectively stated or detailed on the CRF.]|Interventions[--OCCUR][An indication as to whether a prespecified intervention has occurred.]|Interventions[--STAT][Used to indicate when a question about the occurrence of a prespecified intervention was not answered. Should be null or have a value of ""NOT DONE"".]",Cited guidance updated. Reference to model section and item updated per new style.,,,,,,,,,,,,
CG0082,3.2,2,EVT,ALL,--BDSYCD,--BODSYS ^= null,--BDSYCD ^= null,Model v1.4,2.2.2,,Variable Qualifier of --BODSYS,Findings removed since BDSYCD not in Findings.,,,,,,,,,,,,
CG0082,3.3,2,EVT,ALL,--BDSYCD,--BODSYS ^= null,--BDSYCD ^= null,Model v1.7,2.2.2,,Variable Qualifier of --BODSYS,Findings removed since BDSYCD not in Findings.,,,,,,,,,,,,
CG0082,3.4,2,EVT,ALL,--BDSYCD,--BODSYS ^= null,--BDSYCD ^= null,Model v2.0,Events,--BODSYS,Events[--BODSYSCD][Variable Qualifier of BODSYS],Cited guidance updated. Reference to model section and item updated per new style. Findings removed since BDSYCD not in Findings. ,,,,,,,,,,,,
CG0083,3.2,2,EVT,ALL,--BDSYCD,,--BDSYCD and --BODSYS have a one-to-one relationship,Model v1.4,2.2.2,,Variable Qualifier of --BODSYS,Findings removed since BDSYCD not in Findings.,,,,,,,,,,,,
CG0083,3.3,2,EVT,ALL,--BDSYCD,,--BDSYCD and --BODSYS have a one-to-one relationship,Model v1.7,2.2.2,,Variable Qualifier of --BODSYS,Findings removed since BDSYCD not in Findings.,,,,,,,,,,,,
CG0083,3.4,2,EVT,ALL,--BDSYCD,,--BDSYCD and --BODSYS have a one-to-one relationship,Model v2.0,Events,--BODSYS,Events[--BODSYSCD][Variable Qualifier of BODSYS],Cited guidance updated. Reference to model section and item updated per new style. Findings removed since BDSYCD not in Findings. ,,,,,,,,,,,,
CG0084,3.2,2,"EVT, FND",ALL,--TOX,--TOXGR not present in dataset,--TOX not present in dataset,Model v1.4,2.2.2,,Variable Qualifier of --TOXGR,,,,,,,,,,,,,
CG0084,3.3,2,"EVT, FND",ALL,--TOX,--TOXGR not present in dataset,--TOX not present in dataset,Model v1.7,2.2.2,,Variable Qualifier of --TOXGR,,,,,,,,,,,,,
CG0084,3.4,2,"EVT, FND",ALL,--TOX,--TOXGR not present in dataset,--TOX not present in dataset,Model v2.0,Events|Findings,--TOX,Events[--TOX][Variable Qualifier of --TOXGR]|Findings[--TOX][Variable Qualifier of --TOXGR],Cited guidance updated. Reference to model section and item updated per new style. ,,,,,,,,,,,,
CG0085,3.2,1,"EVT, INT","NOT(DS, DV, EX)",--PRESP,,"--PRESP in ('Y', null)",Model v1.4,Model v1.4[2.2.1 (Interventions)]|Model v1.4[2.2.2 (Events)],,"Model v1.4[2.2.1 (Interventions )][--PRESP: Values should be ""Y"" or null.]|Model v1.4[2.2.2 (Events)][--PRESP: Values should be ""Y"" or null.]",,,,,,,,,,,,,
CG0085,3.3,1,"EVT, INT","NOT(DS, DV, EX)",--PRESP,,"--PRESP in ('Y', null)",Model v1.7,Model v1.7[2.2.1 (Interventions)]|Model v1.7[2.2.2 (Events)],,"Model v1.7[2.2.1 (Interventions )][--PRESP: Values should be ""Y"" or null.]|Model v1.7[2.2.2 (Events)][--PRESP: Values should be ""Y"" or null.]",,,,,,,,,,,,,
CG0085,3.4,1,"EVT, INT","NOT(DS, DV, EX)",--PRESP,,"--PRESP in ('Y', null)",Model v2.0,Events|Interventions,--PRESP,"Events[--PRESP][Value is ""Y"" for prespecified events, null for spontaneously reported events.]|Interventions[--PRESP][Values should be ""Y"" or null.]",Cited guidance updated. Reference to model section and item updated per new style.,,,,,,,,,,,,
CG0086,3.2,1,"EVT, INT","NOT(AE, DS, DV, EX)",--OCCUR,--PRESP = 'Y' and --STAT = null and --OCCUR is present in dataset,--OCCUR ^= null,Model v1.4,Model v1.4[2.2.1 (Interventions)]|Model v1.4[2.2.2 (Events)],,"Model v1.4[2.2.1 (Interventions )][--PRESP: Used when a specific intervention is pre-specified on a CRF. Values should be ""Y"" or null.][--OCCUR: Used to record whether a pre-specified event occurred when information about the occurrence of a specific event is solicited.][--STAT: Used to indicate when a question about the occurrence of a pre-specified event was not answered. Should be null or hav a value of NOT DONE]|Model v1.4[2.2.2 (Events)][--PRESP: Used to indicate whether the event describe by --TERM was pre-specified on a CRF. Value is Y for pre-specified events, null for spontaneously reported events.][--OCCUR: Used to record whether a pre-specified event occurred when information about the occurrence of a specific event is solicited.][--STAT: Used to indicate when a question about the occurrence of a pre-specified event was not answered . Should be null or have a value of NOT DONE]",,,,,,,,,,,,,
CG0086,3.3,1,"EVT, INT","NOT(AE, DS, DV, EX)",--OCCUR,--PRESP = 'Y' and --STAT = null and --OCCUR is present in dataset,--OCCUR ^= null,Model v1.7,Model v1.7[2.2.1 (Interventions)]|Model v1.7[2.2.2 (Events)],,"Model v1.7[2.2.1 (Interventions )][--PRESP: Used when a specific intervention is pre-specified on a CRF. Values should be ""Y"" or null.][--OCCUR: Used to record whether a pre-specified event occurred when information about the occurrence of a specific event is solicited.][--STAT: Used to indicate when a question about the occurrence of a pre-specified event was not answered. Should be null or hav a value of NOT DONE]|Model v1.7[2.2.2 (Events)][--PRESP: Used to indicate whether the event describe by --TERM was pre-specified on a CRF. Value is Y for pre-specified events, null for spontaneously reported events.][--OCCUR: Used to record whether a pre-specified event occurred when information about the occurrence of a specific event is solicited.][--STAT: Used to indicate when a question about the occurrence of a pre-specified event was not answered . Should be null or have a value of NOT DONE]",,,,,,,,,,,,,
CG0086,3.4,1,"EVT, INT","NOT(AE, DS, DV, EX)",--OCCUR,--PRESP = 'Y' and --STAT = null and --OCCUR is present in dataset,--OCCUR ^= null,Model v2.0,Events|Interventions,--PRESP|--OCCUR|--STAT,"Events[--PRESP][An indication that the event was prospectively stated or detailed on the CRF. Values should be ""Y"" or null.]|Events|[--OCCUR][An indication as to whether a prespecified event has occurred.]|Events[--STAT][Used to indicate when a question about the occurrence of a prespecified event was not answered. Should be null or have a value of ""NOT DONE"".]|Interventions[--PRESP][An indication that the intervention was prospectively stated or detailed on the CRF. Values should be ""Y"" or null.]|Interventions[--OCCUR][An indication as to whether a prespecified intervention has occurred.]|Interventions[--STAT][Used to indicate when a question about the occurrence of a prespecified intervention was not answered. Should be null or have a value of ""NOT DONE"".]",Cited guidance updated. Reference to model section and item updated per new style. ,,,,,,,,,,,,
CG0087,3.2,1,"EVT, INT","NOT(AE, DS, DV, EX)",--OCCUR,(--PRESP ^= 'Y' and --OCCUR is present in dataset) or (--STAT=NOT DONE),--OCCUR = null,Model v1.4,Model v1.4[2.2.1 (Interventions )]|Model v1.4[2.2.2 (Events)],,"Model v1.4[2.2.1 (Interventions )][--PRESP: Used when a specific intervention is pre-specified on a CRF. Values should be ""Y"" or null.][--OCCUR: Used to record whether a pre-specified event occurred when information about the occurrence of a specific event is solicited.][--STAT: Used to indicate when a question about the occurrence of a pre-specified event was not answered. Should be null or hav a value of NOT DONE]|Model v1.4[2.2.2 (Events)][--PRESP: Used to indicate whether the event describe by --TERM was pre-specified on a CRF. Value is Y for pre-specified events, null for spontaneously reported events.][--OCCUR: Used to record whether a pre-specified event occurred when information about the occurrence of a specific event is solicited.][--STAT: Used to indicate when a question about the occurrence of a pre-specified event was not answered . Should be null or have a value of NOT DONE]",,,,,,,,,,,,,
CG0087,3.3,1,"EVT, INT","NOT(AE, DS, DV, EX)",--OCCUR,(--PRESP ^= 'Y' and --OCCUR is present in dataset) or (--STAT=NOT DONE),--OCCUR = null,Model v1.7,Model v1.7[2.2.1 (Interventions )]|Model v1.7[2.2.2 (Events)],,"Model v1.7[2.2.1 (Interventions )][--PRESP: Used when a specific intervention is pre-specified on a CRF. Values should be ""Y"" or null.][--OCCUR: Used to record whether a pre-specified event occurred when information about the occurrence of a specific event is solicited.][--STAT: Used to indicate when a question about the occurrence of a pre-specified event was not answered. Should be null or hav a value of NOT DONE]|Model v1.7[2.2.2 (Events)][--PRESP: Used to indicate whether the event describe by --TERM was pre-specified on a CRF. Value is Y for pre-specified events, null for spontaneously reported events.][--OCCUR: Used to record whether a pre-specified event occurred when information about the occurrence of a specific event is solicited.][--STAT: Used to indicate when a question about the occurrence of a pre-specified event was not answered . Should be null or have a value of NOT DONE]",,,,,,,,,,,,,
CG0087,3.4,1,"EVT, INT","NOT(AE, DS, DV, EX)",--OCCUR,(--PRESP ^= 'Y' and --OCCUR is present in dataset) or (--STAT=NOT DONE),--OCCUR = null,Model v2.0,Events|Interventions,--PRESP|--OCCUR|--STAT,"Events[--PRESP][An indication that the event was prospectively stated or detailed on the CRF. Values should be ""Y"" or null.]|Events|[--OCCUR][An indication as to whether a prespecified event has occurred.]|Events[--STAT][Used to indicate when a question about the occurrence of a prespecified event was not answered. Should be null or have a value of ""NOT DONE"".]|Interventions[--PRESP][An indication that the intervention was prospectively stated or detailed on the CRF. Values should be ""Y"" or null.]|Interventions[--OCCUR][An indication as to whether a prespecified intervention has occurred.]|Interventions[--STAT][Used to indicate when a question about the occurrence of a prespecified intervention was not answered. Should be null or have a value of ""NOT DONE"".]",Cited guidance updated. Reference to model section and item updated per new style. ,,,,,,,,,,,,
CG0088,3.2,1,"EVT, INT","NOT(AE, DS, DV, EX)",--OCCUR,--PRESP not present in dataset,--OCCUR not present in dataset,Model v1.4,Model v1.4[2.2.1 (Interventions )]|Model v1.4[2.2.2 (Events)],,"Model v1.4[2.2.1 (Interventions )][--PRESP: Used when a specific intervention is pre-specified on a CRF. Values should be ""Y"" or null.][--OCCUR: Used to record whether a pre-specified event occurred when information about the occurrence of a specific event is solicited.]|Model v1.4[2.2.2 (Events)][--PRESP: Used to indicate whether the event describe by --TERM was pre-specified on a CRF. Value is Y for pre-specified events, null for spontaneously reported events.][--OCCUR: Used to record whether a pre-specified event occurred when information about the occurrence of a specific event is solicited.]",,,,,,,,,,,,,
CG0088,3.3,1,"EVT, INT","NOT(AE, DS, DV, EX)",--OCCUR,--PRESP not present in dataset,--OCCUR not present in dataset,Model v1.7,Model v1.7[2.2.1 (Interventions )]|Model v1.7[2.2.2 (Events)],,"Model v1.7[2.2.1 (Interventions )][--PRESP: Used when a specific intervention is pre-specified on a CRF. Values should be ""Y"" or null.][--OCCUR: Used to record whether a pre-specified event occurred when information about the occurrence of a specific event is solicited.]|Model v1.7[2.2.2 (Events)][--PRESP: Used to indicate whether the event describe by --TERM was pre-specified on a CRF. Value is Y for pre-specified events, null for spontaneously reported events.][--OCCUR: Used to record whether a pre-specified event occurred when information about the occurrence of a specific event is solicited.]",,,,,,,,,,,,,
CG0088,3.4,1,"EVT, INT","NOT(AE, DS, DV, EX)",--OCCUR,--PRESP not present in dataset,--OCCUR not present in dataset,Model v2.0,Events|Interventions,--PRESP|--OCCUR|--STAT,"Events[--PRESP][An indication that the event was prospectively stated or detailed on the CRF. Values should be ""Y"" or null.]|Events|[--OCCUR][An indication as to whether a prespecified event has occurred.]|Events[--STAT][Used to indicate when a question about the occurrence of a prespecified event was not answered. Should be null or have a value of ""NOT DONE"".]|Interventions[--PRESP][An indication that the intervention was prospectively stated or detailed on the CRF. Values should be ""Y"" or null.]|Interventions[--OCCUR][An indication as to whether a prespecified intervention has occurred.]|Interventions[--STAT][Used to indicate when a question about the occurrence of a prespecified intervention was not answered. Should be null or have a value of ""NOT DONE"".]",Cited guidance updated. Reference to model section and item updated per new style. ,,,,,,,,,,,,
CG0089,3.2,1,"EVT, INT","NOT(AE, DS, DV, EX)",--PRESP,--OCCUR ^= null,--PRESP = 'Y',Model v1.4,Model v1.4[2.2.1 (Interventions )]|Model v1.4[2.2.2 (Events)],,"Model v1.4[2.2.1 (Interventions )][--PRESP: Used when a specific intervention is pre-specified on a CRF. Values should be ""Y"" or null.][--OCCUR: Used to record whether a pre-specified event occurred when information about the occurrence of a specific event is solicited.]|Model v1.4[2.2.2 (Events)][--PRESP: Used to indicate whether the event describe by --TERM was pre-specified on a CRF. Value is Y for pre-specified events, null for spontaneously reported events.][--OCCUR: Used to record whether a pre-specified event occurred when information about the occurrence of a specific event is solicited.]",,,,,,,,,,,,,
CG0089,3.3,1,"EVT, INT","NOT(AE, DS, DV, EX)",--PRESP,--OCCUR ^= null,--PRESP = 'Y',Model v1.7,Model v1.7[2.2.1 (Interventions )]|Model v1.7[2.2.2 (Events)],,"Model v1.7[2.2.1 (Interventions )][--PRESP: Used when a specific intervention is pre-specified on a CRF. Values should be ""Y"" or null.][--OCCUR: Used to record whether a pre-specified event occurred when information about the occurrence of a specific event is solicited.]|Model v1.7[2.2.2 (Events)][--PRESP: Used to indicate whether the event describe by --TERM was pre-specified on a CRF. Value is Y for pre-specified events, null for spontaneously reported events.][--OCCUR: Used to record whether a pre-specified event occurred when information about the occurrence of a specific event is solicited.]",,,,,,,,,,,,,
CG0089,3.4,1,"EVT, INT","NOT(AE, DS, DV, EX)",--PRESP,--OCCUR ^= null,--PRESP = 'Y',Model v2.0,Events|Interventions,--PRESP|--OCCUR,"Events[--PRESP][An indication that the event was prospectively stated or detailed on the CRF. Values should be ""Y"" or null.]|Events|[--OCCUR][An indication as to whether a prespecified event has occurred.]|Interventions[--PRESP][An indication that the intervention was prospectively stated or detailed on the CRF. Values should be ""Y"" or null.]|Interventions[--OCCUR][An indication as to whether a prespecified intervention has occurred.]",Cited guidance updated. Reference to model section and item updated per new style.,,,,,,,,,,,,
CG0090,3.2,1,ALL,ALL,--TPTREF,--RFTDTC present in dataset,--TPTREF present in dataset,Model v1.4,2.2.5 Timing Variables for All Classes,Specification,(--RFTDTC) Date/time for a fixed reference time point defined by --TPTREF in ISO 8601 character format.,,,,,,,,,,,,,
CG0090,3.3,1,ALL,ALL,--TPTREF,--RFTDTC present in dataset,--TPTREF present in dataset,Model v1.7,2.2.5 Timing Variables for All Classes,Table 2.2.5.1: --RFTDTC,Date/time for a fixed reference time point defined by --TPTREF.,,,,,,,,,,,,,
CG0090,3.4,1,ALL,ALL,--TPTREF,--RFTDTC present in dataset,--TPTREF present in dataset,Model v2.0,Timing,--RFTDTC,"The actual date or date and time of a time point that acts as a fixed reference for a series of planned time points, represented in a standardized character format. The fixed reference point is in --TPTREF.",Cited guidance updated. Reference to model section and item updated per new style. ,,,,,,,,,,,,
CG0091,3.4,1,ALL,ALL,--TPT,--TPTNUM present in dataset,--TPT present in dataset,Model v2.0,Timing,--TPT,"The description of the time when a protocol-defined activity is planned to occur, used for study data tabulation.",Cited guidance updated. Reference to model section and item updated per new style.,,,,,,,,,,,,
CG0092,3.2,1,ALL,ALL,--TPTREF,--ELTM present in dataset,--TPTREF present in dataset,Model v1.4|IG v3.2,Model v1.4[2.2.5 Timing Variables for All Classes]|IG v3.2[4.1.4.10 Representing Time Points],Model v1.4[2.2.5 Timing Variables for All Classes][Specification],"Model v1.4[2.2.5 Timing Variables for All Classes][Specification][(--TPTREF) Description of the fixed reference point referred to by --ELTM, --TPTNUM, and --TPT. Examples: PREVIOUS DOSE, PREVIOUS MEAL.]|IG v3.2[4.1.4.10 Representing Time Points][If the protocol describes the scheduling of a dose using a reference intervention or assessment, then --TPTREF should be populated, even if it does not contribute to uniqueness. The fact that time points are related to a reference time point, and what that reference time point is, are important for interpreting the data collected at the time point.]",Expanded cited guidance to more clearly identify that --ELTM is an elapsed time requiring a reference time point.,,,,,,,,,,,,
CG0092,3.3,1,ALL,ALL,--TPTREF,--ELTM present in dataset,--TPTREF present in dataset,Model v1.7|IG v3.3,Model v1.7[2.2.5 Timing Variables for All Classes]|IG v3.3[4.4.10 Representing Time Points],Model v1.7[2.2.5 Timing Variables for All Classes][Table 2.2.5.1: --TPTREF],"Model v1.7[2.2.5 Timing Variables for All Classes][Table 2.2.5.1: --TPTREF]Description of the fixed reference point referred to by --ELTM, --TPTNUM, --TPT, --STINT, and --ENINT. Examples: ""PREVIOUS DOSE"", ""PREVIOUS MEAL"".]|IG v3.3[4.4.10 Representing Time Points][If the protocol describes the scheduling of a dose using a reference intervention or assessment, then --TPTREF should be populated, even if it does not contribute to uniqueness. The fact that time points are related to a reference time point, and what that reference time point is, are important for interpreting the data collected at the time point.]",Expanded cited guidance to more clearly identify that --ELTM is an elapsed time requiring a reference time point.,,,,,,,,,,,,
CG0092,3.4,1,ALL,ALL,--TPTREF,--ELTM present in dataset,--TPTREF present in dataset,Model v2.0,Timing,--TPTREF,"The description of a time point that acts as a fixed reference for a series of planned time points, used for study data tabulation. Description of the fixed reference point referred to by --ELTM, --TPTNUM, --TPT, --STINT, and --ENINT.",Cited guidance updated.,,,,,,,,,,,,
CG0093,3.2,1,ALL,ALL,--TPTREF,"--ELTM, --TPTNUM, and --TPT not present in dataset",--TPTREF not present in dataset,Model v1.4,2.2.5 Timing Variables for All Classes,Specification,"(--TPTREF) Description of the fixed reference point referred to by --ELTM, --TPTNUM, and --TPT. Examples: PREVIOUS DOSE, PREVIOUS MEAL.",,,,,,,,,,,,,
CG0093,3.3,1,ALL,ALL,--TPTREF,"--ELTM, --TPTNUM, and --TPT not present in dataset",--TPTREF not present in dataset,Model v1.7,2.2.5 Timing Variables for All Classes,Table 2.2.5.1: --TPTREF,"Description of the fixed reference point referred to by --ELTM, --TPTNUM, --TPT, --STINT, and --ENINT. Examples: ""PREVIOUS DOSE"", ""PREVIOUS MEAL"".",,,,,,,,,,,,,
CG0093,3.4,1,ALL,ALL,--TPTREF,"--ELTM, --TPTNUM, and --TPT not present in dataset",--TPTREF not present in dataset,Model v2.0,Timing,--TPTREF,"The description of a time point that acts as a fixed reference for a series of planned time points, used for study data tabulation. Description of the fixed reference point referred to by --ELTM, --TPTNUM, --TPT, --STINT, and --ENINT.",Cited guidance updated. Reference to model section and item updated per new style. ,,,,,,,,,,,,
CG0094,3.2,1,ALL,"NOT(EX, AE, DS, DV, IE)",--STAT,--REASND ^= null,--STAT = 'NOT DONE',Model v1.4,2.2.3,The Findings Observation Class,Reason not done. Used in conjunction with --STAT when value is NOT DONE.,,,,,,,,,,,,,
CG0094,3.3,1,ALL,"NOT(EX, AE, DS, DV, IE)",--STAT,--REASND ^= null,--STAT = 'NOT DONE',Model v1.7,2.2.1|2.2.3,"Table 2.2.1.1, 2.2.2.1, 2.2.3.1: --REASND","Reason not done. Used in conjunction with --STAT when value is ""NOT DONE"".",,,,,,,,,,,,,
CG0094,3.4,1,ALL,"NOT(EX, AE, DS, DV, IE)",--STAT,--REASND ^= null,--STAT = 'NOT DONE',Model v2.0,Interventions|Events|Findings,--REASND,"Events[The explanation for why requested information was not available. Used in conjunction with --STAT when value is ""NOT DONE"".]|Interventions[The explanation for why requested information was not available. Used in conjunction with --STAT when value is ""NOT DONE"".]|Findings[The explanation for why requested information was not available. Used in conjunction with --STAT when value is ""NOT DONE"".]",Cited guidance updated. Reference to model section and item updated per new style.,,,,,,,,,,,,
CG0095,3.2,2,ALL,ALL,--LAT,--LOC not present in dataset,--LAT not present in dataset,Model v1.4,2.2.2,,Qualifier for anatomical location further detailing laterality.,Domain expanded to ALL.,,,,,,,,,,,,
CG0095,3.3,2,ALL,ALL,--LAT,--LOC not present in dataset,--LAT not present in dataset,Model v1.7,2.2.2,Table 3.2.2: --LAT,Qualifier for anatomical location further detailing laterality.,Domain expanded to ALL.,,,,,,,,,,,,
CG0095,3.4,2,ALL,ALL,--LAT,--LOC not present in dataset,--LAT not present in dataset,Model v2.0,Events|Interventions|Findings,--LAT,Events[Variable Qualifier of --LOC]|Interventions[Variable Qualifier of --LOC]|Findings[Variable Qualifier of --LOC],Cited guidance updated. Reference to model section and item updated per new style.,,,,,,,,,,,,
CG0096,3.2,1,INT,CM,CMDECOD,CMTRT has a decode value in the dictionary,CMDECOD ^= null,IG v3.2,IG v3.2[6.1],IG v3.2[6.1][Assumption 2c]|IG v3.2[6.1][Specification],IG v3.2[6.1][Assumption 2c][CMDECOD is the standardized medication/therapy term derived by the sponsor from the coding dictionary. It is expected that the reported term (CMTRT) or the modified term (CMMODIFY) will be coded using a standard dictionary.]|IG v3.2[6.1][Specification][Standardized or dictionary-derived text description of CMTRT or CMMODIFY. Equivalent to the generic medication name in WHO Drug. The sponsor is expected to provide the dictionary name and version used to map the terms utilizing the define.xml external codelist attributes. If an intervention term does not have a decode value in the dictionary then CMDECOD will be left blank.],"Reformatted Condition, no change to rule.",,,,,,,,,,,,
CG0096,3.3,1,INT,CM,CMDECOD,CMTRT has a decode value in the dictionary,CMDECOD ^= null,IG v3.3,IG v3.3[6.1.2],IG v3.3[6.1.2][Assumption 2c]|IG v3.3[6.1.2][Specification],IG v3.3[6.1.2][Assumption 2c][CMDECOD is the standardized medication/therapy term derived by the sponsor from the coding dictionary. It is expected that the reported term (CMTRT) or the modified term (CMMODIFY) will be coded using a standard dictionary.]|IG v3.3[6.1.2][Specification][Standardized or dictionary-derived text description of CMTRT or CMMODIFY. Equivalent to the generic medication name in WHO Drug. The sponsor is expected to provide the dictionary name and version used to map the terms utilizing the define.xml external codelist attributes. If an intervention term does not have a decode value in the dictionary then CMDECOD will be left blank.],"Reformatted Condition, no change to rule.",,,,,,,,,,,,
CG0096,3.4,1,INT,CM,CMDECOD,CMTRT has a decode value in the dictionary,CMDECOD ^= null,,,,,No Change,,,,,,,,,,,,
CG0097,3.2,1,INT,CM,CMTRT,,CMTRT = collected on CRF,IG v3.2,6.1,Specification,Verbatim medication name that is either pre-printed or collected on a CRF.,,,,,,,,,,,,,
CG0097,3.3,1,INT,CM,CMTRT,,CMTRT = collected on CRF,IG v3.3,6.1.2,Specification,Verbatim medication name that is either pre-printed or collected on a CRF.,,,,,,,,,,,,,
CG0097,3.4,1,INT,CM,CMTRT,,CMTRT = collected on CRF,IG v3.4,6.1.2,Specification,Verbatim medication name that is either pre-printed or collected on a CRF.,No Change,,,,,,,,,,,,
CG0098,3.2,1,INT,CM,CMTRT,,CMTRT = collected medication name only,IG v3.2,6.1,Assumption 2a,"CMTRT should only include the medication/therapy name and should not include dosage, formulation, or other qualifying information.",,,,,,,,,,,,,
CG0098,3.3,1,INT,CM,CMTRT,,CMTRT = collected medication name only,IG v3.3,6.1.2,Assumption 2a,"CMTRT should only include the medication/therapy name and should not include dosage, formulation, or other qualifying information.",,,,,,,,,,,,,
CG0098,3.4,1,INT,CM,CMTRT,,CMTRT = collected medication name only,IG v3.4,6.1.2,Assumption 2a,"CMTRT should only include the medication/therapy name and should not include dosage, formulation, or other qualifying information.",No Change,,,,,,,,,,,,
CG0099,3.2,1,INT,"CM, SU",--MODIFY,--TRT modified,--MODIFY ^= null,Model v1.4,2.2.1,,"If the value for --TRT is modified for coding purposes, then the modified text is placed here.",,,,,,,,,,,,,
CG0099,3.3,1,INT,"CM, SU",--MODIFY,--TRT modified,--MODIFY ^= null,Model v1.7,2.2.1,,"If the value for --TRT is modified for coding purposes, then the modified text is placed here.",,,,,,,,,,,,,
CG0099,3.4,1,INT,"CM, SU",--MODIFY,--TRT modified,--MODIFY ^= null,Model v2.0,Interventions,--MODIFY,A value which represents an alteration to a collected value for coding purposes. Synonym Qualifier of --TRT.,Cited guidance updated. Reference to model section and item updated per new style.,,,,,,,,,,,,
CG0100,3.2,2,INT,EC,ECDOSE,ECOCCUR ^= 'N' and ECSTAT = null and ECDOSTXT = null,ECDOSE > 0,IG v3.2,IG v3.2[6.1],IG v3.2[6.1][Assumption 4a]|IG v3.2[6.1][Assumption 4b],"IG v3.2[6.1][Assumption 4a][For example, if 0 tablets are taken within a timeframe or 0 mL infused at a visit, then ECOCCUR = 'N' is the standard representation of the collected doses not taken, not given, or missed. Dose amount variables (e.g., ECDOSE, ECDOSTXT) must not be set to zero (0) as an alternative method for indicating doses not taken, not given, or missed.]|IG v3.2[6.1][Assumption 4b][Qualifiers that indicate dose amount (e.g., ECDOSE, ECDOSTXT) may be populated with positive (non-zero) values in cases where the sponsor feels it is necessary and/or appropriate to represent specific dose amounts not taken, not given, or missed.]",,,,,,,,,,,,,
CG0100,3.3,2,INT,EC,ECDOSE,ECOCCUR ^= 'N' and ECSTAT = null and ECDOSTXT = null,ECDOSE > 0,IG v3.3,6.1.3.2,Assumption 4a|Assumption 4b,"Assumption 4a[For example, if 0 tablets are taken within a timeframe or 0 mL infused at a visit, then ECOCCUR = 'N' is the standard representation of the collected doses not taken, not given, or missed. Dose amount variables (e.g., ECDOSE, ECDOSTXT) must not be set to zero (0) as an alternative method for indicating doses not taken, not given, or missed.]|Assumption 4b[Qualifiers that indicate dose amount (e.g., ECDOSE, ECDOSTXT) may be populated with positive (non-zero) values in cases where the sponsor feels it is necessary and/or appropriate to represent specific dose amounts not taken, not given, or missed.]",,,,,,,,,,,,,
CG0100,3.4,2,INT,EC,ECDOSE,ECOCCUR ^= 'N' and ECSTAT = null and ECDOSTXT = null,ECDOSE > 0,IG v3.4,6.1.3.2,Assumption 4a|Assumption 4b,"Assumption 4a[For example, if 0 tablets are taken within a timeframe or 0 mL infused at a visit, then ECOCCUR = 'N' is the standard representation of the collected doses not taken, not given, or missed. Dose amount variables (e.g., ECDOSE, ECDOSTXT) must not be set to zero (0) as an alternative method for indicating doses not taken, not given, or missed.]|Assumption 4b[Qualifiers that indicate dose amount (e.g., ECDOSE, ECDOSTXT) may be populated with positive (non-zero) values in cases where the sponsor feels it is necessary and/or appropriate to represent specific dose amounts not taken, not given, or missed.]",No Change,,,,,,,,,,,,
CG0101,3.2,2,INT,EC,ECDOSE,ECOCCUR = 'N',ECDOSE = null or > 0,IG v3.2,IG v3.2[6.1],IG v3.2[6.1][Assumption 4a]|IG v3.2[6.1][Assumption 4b],"IG v3.2[6.1][Assumption 4a][For example, if 0 tablets are taken within a timeframe or 0 mL infused at a visit, then ECOCCUR = 'N' is the standard representation of the collected doses not taken, not given, or missed. Dose amount variables (e.g., ECDOSE, ECDOSTXT) must not be set to zero (0) as an alternative method for indicating doses not taken, not given, or missed.]|IG v3.2[6.1][Assumption 4b][Qualifiers that indicate dose amount (e.g., ECDOSE, ECDOSTXT) may be populated with positive (non-zero) values in cases where the sponsor feels it is necessary and/or appropriate to represent specific dose amounts not taken, not given, or missed.]","Rule updated from ""ECDOSE = null"".",,,,,,,,,,,,
CG0101,3.3,2,INT,EC,ECDOSE,ECOCCUR = 'N',ECDOSE = null or > 0,IG v3.3,IG v3.3[6.1.3.2],IG v3.3[6.1.3.2][Assumption 4a]|IG v3.3[6.1.3.2][Assumption 4b],"IG v3.3[6.1.3.2][Assumption 4a][For example, if 0 tablets are taken within a timeframe or 0 mL infused at a visit, then ECOCCUR = 'N' is the standard representation of the collected doses not taken, not given, or missed. Dose amount variables (e.g., ECDOSE, ECDOSTXT) must not be set to zero (0) as an alternative method for indicating doses not taken, not given, or missed.]|IIG v3.3[6.1.3.2][Assumption 4b][Qualifiers that indicate dose amount (e.g., ECDOSE, ECDOSTXT) may be populated with positive (non-zero) values in cases where the sponsor feels it is necessary and/or appropriate to represent specific dose amounts not taken, not given, or missed.]","Rule updated from ""ECDOSE = null"".",,,,,,,,,,,,
CG0101,3.4,2,INT,EC,ECDOSE,ECOCCUR = 'N',ECDOSE = null or > 0,IG v3.4,6.1.3.2,,"IG v3.4[6.1.3.2][Assumption 4a][For example, if 0 tablets are taken within a timeframe or 0 mL is  infused at a visit, then ECOCCUR = 'N' is the standard representation of the collected doses not taken, not given, or missed. Dose amount variables (e.g., ECDOSE, ECDOSTXT) must not be set to zero (0) as an alternative method for indicating doses not taken, not given, or missed.]|IG v3.4[6.1.3.2][Assumption 4b][Qualifiers that indicate dose amount (e.g., ECDOSE, ECDOSTXT) may be populated with positive (non-zero) values in cases where the sponsor feels it is necessary and/or appropriate to represent specific dose amounts not taken, not given, or missed.]",Cited guidance from 6.1.3.2 Assumption 4A updated slightly in SDTMIG v3.4,,,,,,,,,,,,
CG0102,3.2,1,INT,EX,EXDOSE,EXTRT = 'PLACEBO',EXDOSE = 0,IG v3.2,6.1,Assumption 2b,Doses of placebo should be represented by EXTRT = 'PLACEBO' and EXDOSE = 0 (indicating 0 mg of active ingredient was taken or administered).,,,,,,,,,,,,,
CG0102,3.3,1,INT,EX,EXDOSE,EXTRT = 'PLACEBO',EXDOSE = 0,IG v3.3,6.1.3.1,Assumption 2b,Doses of placebo should be represented by EXTRT = 'PLACEBO' and EXDOSE = 0 (indicating 0 mg of active ingredient was taken or administered).,,,,,,,,,,,,,
CG0102,3.4,1,INT,EX,EXDOSE,EXTRT = 'PLACEBO',EXDOSE = 0,IG v3.4,6.1.3.1,Assumption 2b,"Doses of placebo should be represented by EXTRT = ""PLACEBO"" and EXDOSE = ""0"" (indicating 0 mg of active ingredient was taken or administered).",No Change,,,,,,,,,,,,
CG0103,3.2,1,INT,EX,EXDOSU,,EXDOSU = protocol-specified unit,IG v3.2,6.1,Specification,"Units for EXDOSE, EXDOSTOT, or EXDOSTXT representing protocol-specified values.",,,,,,,,,,,,,
CG0103,3.3,1,INT,EX,EXDOSU,,EXDOSU = protocol-specified unit,IG v3.3,6.1.3.1,Specification,"Units for EXDOSE, EXDOSTOT, or EXDOSTXT representing protocol-specified values.",,,,,,,,,,,,,
CG0103,3.4,1,INT,EX,EXDOSU,,EXDOSU = protocol-specified unit,IG v3.4,6.1.3.1,Specification,"Units for EXDOSE, EXDOSTOT, or EXDOSTXT representing protocol-specified values.",No Change,,,,,,,,,,,,
CG0104,3.2,1,INT,EX,EXTRT,,EXTRT = protocol-specified treatment,IG v3.2,6.1,Specification,Name of the protocol-specified study treatment given during the dosing period for the observation.,,,,,,,,,,,,,
CG0104,3.3,1,INT,EX,EXTRT,,EXTRT = protocol-specified treatment,IG v3.3,6.1.3.1,Specification,Name of the protocol-specified study treatment given during the dosing period for the observation.,,,,,,,,,,,,,
CG0104,3.4,1,INT,EX,EXTRT,,EXTRT = protocol-specified treatment,IG v3.4,6.1.3.1,Specification,Name of the protocol-specified study treatment given during the dosing period for the observation.,No Change,,,,,,,,,,,,
CG0105,3.2,1,INT,EX,EXVAMT,EC domain is present,EXVAMT not present in dataset,IG v3.2,6.1,Assumption 6c,"When the EC domain (See Section 6.1.2.3) is implemented in conjunction with the EX domain, EXVAMT and EXVAMTU should not be used in EX; collected values instead would be represented in ECDOSE and ECDOSU",,,,,,,,,,,,,
CG0105,3.3,1,INT,EX,EXVAMT,EC domain is present,EXVAMT not present in dataset,IG v3.3,6.1.3.1,Assumption 6c,"When the EC domain is implemented in conjunction with the EX domain, EXVAMT and EXVAMTU should not be used in EX; collected values instead would be represented in ECDOSE and ECDOSU.",,,,,,,,,,,,,
CG0105,3.4,1,INT,EX,EXVAMT,EC domain is present,EXVAMT not present in dataset,IG v3.4,6.1.3.1,Assumption 6c,"When the EC domain is implemented in conjunction with the EX domain, EXVAMT and EXVAMTU should not be used in EX; collected values instead would be represented in ECDOSE and ECDOSU.",No Change,,,,,,,,,,,,
CG0106,3.2,1,INT,ALL,--VAMT,--TRTV = null,--VAMT = null,Model v1.4,2.2.1,,"[--TRTV:Vehicle for administration of treatment, such as a liquid in which the treatment drug is dissolved. Example: SALINE.][--VAMT: Amount of the prepared product (treatment + vehicle) administered or given. Note: should not be diluent amount alone.][--VAMTU: Units for the prepared product (treatment + vehicle). Examples: mL, mg.]",,,,,,,,,,,,,
CG0106,3.3,1,INT,ALL,--VAMT,--TRTV = null,--VAMT = null,Model v1.7,2.2.1,,"[--TRTV:Vehicle for administration of treatment, such as a liquid in which the treatment drug is dissolved. Example: SALINE.][--VAMT: Amount of the prepared product (treatment + vehicle) administered or given. Note: should not be diluent amount alone.][--VAMTU: Units for the prepared product (treatment + vehicle). Examples: mL, mg.]",,,,,,,,,,,,,
CG0106,3.4,1,INT,ALL,--VAMT,--TRTV = null,--VAMT = null,Model v2.0,Interventions,--TRTV|--VAMT,--TRTV[A carrier or inert medium in which a medicinally active agent is administered.]|--VAMT[Amount of the prepared product (treatment plus vehicle) administered.],Cited guidance updated. Reference to model section and item updated per new style.,,,,,,,,,,,,
CG0107,3.2,1,INT,EX,EXVAMTU,EC domain is present,EXVAMTU not present in dataset,IG v3.2,6.1,Assumption 6c,"When the EC domain (See Section 6.1.2.3) is implemented in conjunction with the EX domain, EXVAMT and EXVAMTU should not be used in EX; collected values instead would be represented in ECDOSE and ECDOSU",,,,,,,,,,,,,
CG0107,3.3,1,INT,EX,EXVAMTU,EC domain is present,EXVAMTU not present in dataset,IG v3.3,6.1.3.1,Assumption 6c,"When the EC domain (See Section 6.1.2.3) is implemented in conjunction with the EX domain, EXVAMT and EXVAMTU should not be used in EX; collected values instead would be represented in ECDOSE and ECDOSU",,,,,,,,,,,,,
CG0107,3.4,1,INT,EX,EXVAMTU,EC domain is present,EXVAMTU not present in dataset,IG v3.4,6.1.3.1,Assumption 6c,"When the EC domain is implemented in conjunction with the EX domain, EXVAMT and EXVAMTU should not be used in EX; collected values instead would be represented in ECDOSE and ECDOSU.",Cited guidance updated slightly in SDTMIG v3.4,,,,,,,,,,,,
CG0108,3.2,2,INT,ALL,--VAMTU,--TRTV = null,--VAMTU = null,Model v1.4,2.2.1,,"--TRTV:Vehicle for administration of treatment, such as a liquid in which the treatment drug is dissolved. Example: SALINE. --VAMT: Amount of the prepared product (treatment + vehicle) administered or given. Note: should not be diluent amount alone. --VAMTU: Units for the prepared product (treatment + vehicle). Examples: mL, mg.","Updated Variable from ""EXVAMTU"". Updated Rule from ""EXVAMTU = null"". Updated Condition from ""EXTRTV = null"".",,,,,,,,,,,,
CG0108,3.3,2,INT,ALL,--VAMTU,--TRTV = null,--VAMTU = null,Model v1.7,2.2.1,,"--TRTV:Vehicle for administration of treatment, such as a liquid in which the treatment drug is dissolved. Example: SALINE. --VAMT: Amount of the prepared product (treatment + vehicle) administered or given. Note: should not be diluent amount alone. --VAMTU: Units for the prepared product (treatment + vehicle). Examples: mL, mg.","Updated Variable from ""EXVAMTU"". Updated Rule from ""EXVAMTU = null"". Updated Condition from ""EXTRTV = null"".",,,,,,,,,,,,
CG0108,3.4,2,INT,ALL,--VAMTU,--TRTV = null,--VAMTU = null,Model v2.0,Interventions,--VAMTU,Variable Qualifier of --VAMT.,Cited guidance updated. Reference to model section and item updated per new style.,,,,,,,,,,,,
CG0109,3.2,1,SPC,DM,ACTARMCD,No records in EX for Subject,"DM.ACTARMCD in ('SCRNFAIL', 'NOTASSGN', 'NOTTRT')",IG v3.2,5,Specification|Assumption 4|Assumption 10,"Specification[ACTARMCD: Randomized subjects who were not treated will be given a value of NOTTRT. Values should be ""SCRNFAIL"" for screen failures and ""NOTASSGN"" for subjects not assigned to treatment]|Assumption 4[Subjects withdrawn from a trial before assignment to an Arm, if they are not screen failures, should have ARMCD = 'NOTASSGN' and ARM = 'Not Assigned'.]|Assumption 10[subjects who are ineligible for treatment (e.g., screen failures with ARMCD=SCRNFAIL), subjects who were enrolled but not assigned to an arm (ARMCD=NOTASSGN), or subjects who were randomized but not treated (ACTARMCD=NOTTRT), RFSTDTC will be null.]",N/A for v3.3 (new variable ARMNRS),,,,,,,,,,,,
CG0110,3.2,1,INT,ALL,--DOSE,--DOSTXT ^= null,--DOSE = null,Model v1.4,2.2.1,--DOSE Specification,Amount of --TRT when numeric. Not populated when --DOSTXT is populated.,Corrected source text reference.,,,,,,,,,,,,
CG0110,3.3,1,INT,ALL,--DOSE,--DOSTXT ^= null,--DOSE = null,Model v1.7,2.2.1,--DOSE Specification,Amount of --TRT when numeric. Not populated when --DOSTXT is populated.,Corrected source text reference.,,,,,,,,,,,,
CG0110,3.4,1,INT,ALL,--DOSE,--DOSTXT ^= null,--DOSE = null,Model v2.0,Interventions,--DOSE,Not populated when --DOSTXT is populated.,Cited guidance updated. Reference to model section and item updated per new style.,,,,,,,,,,,,
CG0111,3.2,1,INT,ALL,--DOSTXT,--DOSE ^= null,--DOSTXT = null,IG v3.2,6.1,Specification,Amount of --TRT when non-numeric. Dosing amounts or a range of dosing information collected in text form. Example: 200-400. Not populated when --DOSE is populated.,,,,,,,,,,,,,
CG0111,3.3,1,INT,ALL,--DOSTXT,--DOSE ^= null,--DOSTXT = null,Model v1.7,2.2.1,Specification,"Dosing information collected in text form. Examples: <1 per day, 200-400. Not populated when --DOSE is populated.",,,,,,,,,,,,,
CG0111,3.4,1,INT,ALL,--DOSTXT,--DOSE ^= null,--DOSTXT = null,Model v2.0,Interventions,--DOSTXT,Not populated when --DOSE is populated.,Cited guidance updated. Reference to model section and item updated per new style.,,,,,,,,,,,,
CG0112,3.2,1,INT,ALL,--DOSTXT,,--DOSTXT value is non-numeric,Model v1.4,2.2.1,Specification: --DOSTXT,"Dosing information collected in text form. Examples: <1 per day, 200-400. Not populated when --DOSE is populated.",Corrected source text reference.,,,,,,,,,,,,
CG0112,3.3,1,INT,ALL,--DOSTXT,,--DOSTXT value is non-numeric,Model v1.7,2.2.1,Specification,"Dosing information collected in text form. Examples: <1 per day, 200-400. Not populated when --DOSE is populated.",Corrected source text reference.,,,,,,,,,,,,
CG0112,3.4,1,INT,ALL,--DOSTXT,,--DOSTXT value is non-numeric,Model v2.0,Interventions,--DOSTXT,"A textual description of the quantity of an agent (e.g., drug, substance, radiation) taken or absorbed at a single administration.",Cited guidance updated. Reference to model section and item updated per new style.,,,,,,,,,,,,
CG0114,3.2,1,INT,ALL,--DOSU,--DOSE ^= null or --DOSTOT ^= null or --DOSTXT ^= null,--DOSU ^= null,Model v1.4,2.2.1,--DOSU Specification,"Units for --DOSE, --DOSTOT, or --DOSTXT (Examples: ng, mg, mg/kg).",Corrected source text reference.,,,,,,,,,,,,
CG0114,3.3,1,INT,ALL,--DOSU,--DOSE ^= null or --DOSTOT ^= null or --DOSTXT ^= null,--DOSU ^= null,Model v1.7,2.2.1,Specification,"Units for --DOSE, --DOSTOT, or --DOSTXT. Examples: ""ng"", ""mg"", ""mg/kg"".",Corrected source text reference.,,,,,,,,,,,,
CG0114,3.4,1,INT,ALL,--DOSU,--DOSE ^= null or --DOSTOT ^= null or --DOSTXT ^= null,--DOSU ^= null,Model v2.0,Interventions,--DOSU,"Units for --DOSE, --DOSTOT, or --DOSTXT",Cited guidance updated. Reference to model section and item updated per new style.,,,,,,,,,,,,
CG0115,3.2,2,"INT, FND, EVT",ALL,--PORTOT,--LOC not present in dataset,--PORTOT not present in dataset,Model v1.4,2.2.2,--PORTOT Specification,"Qualifier for anatomical location further detailing the distribution, which means arrangement of, apportioning of the intervention administration.",Class expanded to include Events.,,,,,,,,,,,,
CG0115,3.3,2,"INT, FND, EVT",ALL,--PORTOT,--LOC not present in dataset,--PORTOT not present in dataset,Model v1.7,2.2.1,--PORTOT Specification,"Qualifier for anatomical location further detailing the distribution, which means arrangement of, apportioning of the intervention administration.",Class expanded to include Events.,,,,,,,,,,,,
CG0115,3.4,2,"INT, FND, EVT",ALL,--PORTOT,--LOC not present in dataset,--PORTOT not present in dataset,Model v2.0,Events|Interventions|Findings,--PORTOT,Events[Variable Qualifer of --LOC.]|Interventions[Variable Qualifer of --LOC.]|Findings[Variable Qualifer of --LOC.],Cited guidance updated. Reference to model section and item updated per new style.,,,,,,,,,,,,
CG0116,3.2,2,"INT, FND, EVT",ALL,--DIR,--LOC not present in dataset,--DIR not present in dataset,Model v1.4,2.2.2,--DIR Specification,Qualifier for anatomical location further detailing directionality ...,Class expanded to include Events.,,,,,,,,,,,,
CG0116,3.3,2,"INT, FND, EVT",ALL,--DIR,--LOC not present in dataset,--DIR not present in dataset,Model v1.7,2.2.2,--DIR Specification,Qualifier for anatomical location further detailing directionality ...,Class expanded to include Events.,,,,,,,,,,,,
CG0116,3.4,2,"INT, FND, EVT",ALL,--DIR,--LOC not present in dataset,--DIR not present in dataset,Model v2.0,Events|Interventions|Findings,--DIR,Events[Variable Qualifer of --LOC.]|Interventions[Variable Qualifer of --LOC.]|Findings[Variable Qualifer of --LOC.],Cited guidance updated. Reference to model section and item updated per new style.,,,,,,,,,,,,
CG0117,3.2,1,SPC,DM,ACTARM,ACTARM not in TA.ARM,"ACTARM in ('Screen Failure', 'Not Assigned', 'Not Treated', 'Unplanned Treatment')",IG v3.2,5,Specification,"Description of actual Arm. When an Arm is not planned (not in Trial Arms), ACTARM will be “Unplanned Treatment”. Randomized subjects who were not treated will be given a value of “Not Treated”. Values should be “Screen Failure” for screen failures and “Not Assigned” for subjects not assigned to treatment. Restricted to values in Trial Arms in all other cases.",N/A for v3.3 (new variable ARMNRS),,,,,,,,,,,,
CG0118,3.2,1,SPC,DM,ACTARM,"ACTARM not in ('Screen Failure', 'Not Assigned', 'Not Treated', 'Unplanned Treatment')",ACTARM in TA.ARM,IG v3.2,5,Specification,"Description of actual Arm. When an Arm is not planned (not in Trial Arms), ACTARM will be “Unplanned Treatment”. Randomized subjects who were not treated will be given a value of “Not Treated”. Values should be “Screen Failure” for screen failures and “Not Assigned” for subjects not assigned to treatment. Restricted to values in Trial Arms in all other cases.",N/A for v3.3 (new variable ARMNRS),,,,,,,,,,,,
CG0119,3.2,1,SPC,DM,ACTARM,"ACTARM in ('Screen Failure', 'Not Assigned')",ACTARM = ARM,IG v3.2,5,Specification,"Values should be ""Screen Failure"" for screen failures and ""Not Assigned"" for subjects not assigned to treatment.",N/A for v3.3 (new variable ARMNRS),,,,,,,,,,,,
CG0120,3.2,1,SPC,DM,ARM,ARM not in TA.ARM,"ARM in ('Screen Failure', 'Not Assigned')",IG v3.2,5,Specification,Name of the Arm to which the subject was assigned.,N/A for v3.3 (new variable ARMNRS),,,,,,,,,,,,
CG0121,3.2,1,SPC,DM,ARM,"ARM not in ('Screen Failure', 'Not Assigned')",ARM in TA.ARM,IG v3.2,5,Specification,Name of the Arm to which the subject was assigned.,N/A for v3.3 (new variable ARMNRS),,,,,,,,,,,,
CG0122,3.2,1,SPC,DM,ARM,"ARM in ('Screen Failure', 'Not Assigned')",ARM = ACTARM,IG v3.2,5,Assumption 4,"Data for screen failure subjects, if submitted, should be included in the Demographics dataset, with ARMCD = ""SCRNFAIL' and ARM = ""Screen Failure"". Subjects withdrawn from a trial before assignment to an Arm, if they are not screen failures, should have ARMCD ='NOTASSGN' and ARM = 'Not Assigned'.",N/A for v3.3 (new variable ARMNRS),,,,,,,,,,,,
CG0123,3.2,1,SPC,DM,ACTARMCD,,ACTARMCD value length <= 20,IG v3.2,5,Specification,ACTARMCD is limited to 20 characters and does not have special character restrictions.,,,,,,,,,,,,,
CG0123,3.3,1,SPC,DM,ACTARMCD,,ACTARMCD value length <= 20,IG v3.3,5.2,Specification,Code of actual Arm. ACTARMCD is limited to 20 characters. It is not subject to the character restrictions that apply to TESTCD.,,,,,,,,,,,,,
CG0123,3.4,1,SPC,DM,ACTARMCD,,ACTARMCD value length <= 20,IG v3.4,5.2,Specification,Code of actual Arm. ACTARMCD is limited to 20 characters. It is not subject to the character restrictions that apply to TESTCD.,No Change,,,,,,,,,,,,
CG0124,3.2,1,SPC,DM,ACTARMCD,ACTARMCD not in TA.ARMCD,"ACTARMCD in ('SCRNFAIL', 'NOTASSGN', 'NOTTRT', 'UNPLAN')",IG v3.2,5,Specification,"Code of actual Arm. When an Arm is not planned (not in Trial Arms), ACTARMCD will be UNPLAN. Randomized subjects who were not treated will be given a value of NOTTRT. Values should be ""SCRNFAIL"" for screen failures and ""NOTASSGN"" for subjects not assigned to treatment. Restricted to values in Trial Arms in all other cases",N/A for v3.3 (new variable ARMNRS),,,,,,,,,,,,
CG0125,3.2,1,SPC,DM,ACTARMCD,"ACTARMCD not in ('SCRNFAIL', 'NOTASSGN', 'NOTTRT', 'UNPLAN')",ACTARMCD in TA.ARMCD,IG v3.2,5,Specification,"Code of actual Arm. When an Arm is not planned (not in Trial Arms), ACTARMCD will be UNPLAN. Randomized subjects who were not treated will be given a value of NOTTRT. Values should be ""SCRNFAIL"" for screen failures and ""NOTASSGN"" for subjects not assigned to treatment. Restricted to values in Trial Arms in all other cases",N/A for v3.3 (new variable ARMNRS),,,,,,,,,,,,
CG0126,3.2,1,SPC,DM,ARMCD,"ARMCD not in ('SCRNFAIL', 'NOTASSGN')",ARMCD in TA.ARMCD,IG v3.2,5,Assumption 4,"Data for screen failure subjects, if submitted, should be included in the Demographics dataset, with ARMCD = ""SCRNFAIL' and ARM = ""Screen Failure"". Subjects withdrawn from a trial before assignment to an Arm, if they are not screen failures, should have ARMCD ='NOTASSGN' and ARM = 'Not Assigned'.",N/A for v3.3 (new variable ARMNRS),,,,,,,,,,,,
CG0127,3.2,1,SPC,DM,ACTARMCD,"ACTARMCD in ('SCRNFAIL', 'NOTASSGN')",ACTARMCD = ARMCD,IG v3.2,5,Specification,"Values should be ""SCRNFAIL"" for screen failures and ""NOTASSGN"" for subjects not assigned to treatment.",N/A for v3.3 (new variable ARMNRS),,,,,,,,,,,,
CG0128,3.2,1,SPC,DM,ARMCD,ARMCD not in TA.ARMCD,"ARMCD in ('SCRNFAIL', 'NOTASSGN')",IG v3.2,5,Assumption 4,"Data for screen failure subjects, if submitted, should be included in the Demographics dataset, with ARMCD = ""SCRNFAIL' and ARM = ""Screen Failure"". Subjects withdrawn from a trial before assignment to an Arm, if they are not screen failures, should have ARMCD ='NOTASSGN' and ARM = 'Not Assigned'.",N/A for v3.3 (new variable ARMNRS),,,,,,,,,,,,
CG0129,3.2,1,SPC,DM,ARMCD,"ARMCD in ('SCRNFAIL', 'NOTASSGN')",ARMCD = ACTARMCD,IG v3.2,5,Specification,"Values should be ""SCRNFAIL"" for screen failures and ""NOTASSGN"" for subjects not assigned to treatment.",N/A for v3.3 (new variable ARMNRS),,,,,,,,,,,,
CG0131,3.2,1,SPC,DM,DTHFL,,"DTHFL in ('Y',null)",Model v1.4,2.2.6,,Should be Y or null.,,,,,,,,,,,,,
CG0131,3.3,1,SPC,DM,DTHFL,,"DTHFL in ('Y',null)",Model v1.7,Table 2.2.6,DTHFL Description," Should be ""Y"" or null.",,,,,,,,,,,,,
CG0131,3.4,1,SPC,DM,DTHFL,,"DTHFL in ('Y',null)",Model v2.0,Demographics,DTHFL,"Should be ""Y"" or null.",Reference to model section and item updated per new style,,,,,,,,,,,,
CG0132,3.2,1,SPC,DM,DTHFL,SS.SSSTRESC = 'DEAD',DTHFL = 'Y',IG v3.2,6.3,Assumption 2,"For example, if a subject's Survival Status is ""DEAD"", the date of death must be stored in DM and within a final disposition record in DS.",,,,,,,,,,,,,
CG0132,3.3,1,SPC,DM,DTHFL,SS.SSSTRESC = 'DEAD',DTHFL = 'Y',IG v3.3,6.3.15,Assumption 1,"For example, if a subject's Survival Status is ""DEAD"", the date of death must be stored in DM and within a final disposition record in DS.",,,,,,,,,,,,,
CG0132,3.4,1,SPC,DM,DTHFL,SS.SSSTRESC = 'DEAD',DTHFL = 'Y',IG v3.4,4.5.8|6.3.11,Accounting for Long-Term Follow-up|Assumption 1,"4.5.8[4. If the subject's survival status is ""dead"", the Demographics (DM) variables DTHDTC and DTHFL must be appropriately populated.]|6.3.11[For example, if a subject's survival status is ""DEAD"", the date of death must be stored in DM and within a final disposition record in DS.]","Change in section, and added similar citation in additional section",,,,,,,,,,,,
CG0133,3.2,1,SPC,DM,DTHFL,DD record present for subject,DTHFL = 'Y',IG v3.2,5,Specification|DD Assumption 1,"Specification[Indicates the subject died. Should be Y or null. Should be populated even when the death date is unknown.]|DD Assumption 1[This domain captures information pertaining to the death of a subject, including the causes of death.]",,,,,,,,,,,,,
CG0133,3.3,1,SPC,DM,DTHFL,DD record present for subject,DTHFL = 'Y',IG v3.3,IG v3.3[5.2]|IG v3.3[6.3.2],,IG v3.3[5.2][Indicates the subject died. Should be Y or null. Should be populated even when the death date is unknown.]||IG v3.3[6.3.2][A findings domain that contains the diagnosis of the cause of death for a subject],,,,,,,,,,,,,
CG0133,3.4,1,SPC,DM,DTHFL,DD record present for subject,DTHFL = 'Y',IG v3.4,5.2 | 6.3.2,Specification | DD Description,"5.2 [Indicates the subject died. Should be ""Y"" or null. Should be populated even when the death date is unknown.] | 6.3.2 [A findings domain that contains the diagnosis of the cause of death for a subject.]",No Change,,,,,,,,,,,,
CG0134,3.2,1,SPC,DM,DTHFL,AE.AEOUT = 'FATAL',DTHFL = 'Y',IG v3.2,5,Specification,Indicates the subject died. Should be Y or null. Should be populated even when the death date is unknown.,,,,,,,,,,,,,
CG0134,3.3,1,SPC,DM,DTHFL,AE.AEOUT = 'FATAL',DTHFL = 'Y',IG v3.3,5.2,Specification,Indicates the subject died. Should be Y or null. Should be populated even when the death date is unknown.,,,,,,,,,,,,,
CG0134,3.4,1,SPC,DM,DTHFL,AE.AEOUT = 'FATAL',DTHFL = 'Y',IG v3.4,5.2,Specification,Indicates the subject died. Should be Y or null. Should be populated even when the death date is unknown.,No Change,,,,,,,,,,,,
CG0135,3.2,1,SPC,DM,DTHFL,AE.AESDTH = 'Y',DTHFL = 'Y',IG v3.2,5,Specification,Indicates the subject died. Should be Y or null. Should be populated even when the death date is unknown.,,,,,,,,,,,,,
CG0135,3.3,1,SPC,DM,DTHFL,AE.AESDTH = 'Y',DTHFL = 'Y',IG v3.3,5.2,Specification,Indicates the subject died. Should be Y or null. Should be populated even when the death date is unknown.,,,,,,,,,,,,,
CG0135,3.4,1,SPC,DM,DTHFL,AE.AESDTH = 'Y',DTHFL = 'Y',IG v3.4,5.2,Specification,Indicates the subject died. Should be Y or null. Should be populated even when the death date is unknown.,No Change,,,,,,,,,,,,
CG0136,3.2,1,SPC,DM,DTHFL,DS.DSDECOD = 'DEATH',DTHFL = 'Y',IG v3.2,5,Specification,Indicates the subject died. Should be Y or null. Should be populated even when the death date is unknown.,,,,,,,,,,,,,
CG0136,3.3,1,SPC,DM,DTHFL,DS.DSDECOD = 'DEATH',DTHFL = 'Y',IG v3.3,5.2,Specification,Indicates the subject died. Should be Y or null. Should be populated even when the death date is unknown.,,,,,,,,,,,,,
CG0136,3.4,1,SPC,DM,DTHFL,DS.DSDECOD = 'DEATH',DTHFL = 'Y',IG v3.4,5.2,Specification,Indicates the subject died. Should be Y or null. Should be populated even when the death date is unknown.,No Change,,,,,,,,,,,,
CG0138,3.2,1,SPC,DM,QNAM,Population flags included in submission,Population flags in SUPPDM,IG v3.2,5|Appendix C2,Assumption 5,"When study population flags are included in SDTM, they are treated as Supplemental Qualifiers (see Section 8: 8.4, Relating Non-Standard Variables Values To A Parent Domain) to DM and placed in the SUPPDM dataset. Controlled terms for these subject-level population flags, (e.g., COMPLT, SAFETY, ITT and PPROT) are listed in Appendix C2 - Supplemental Qualifier Name Codes.",dropped previous release note which was incorrect,,,,,,,,,,,,
CG0140,3.2,1,SPC,DM,RACE,Multiple records in SUPPDM where RACE captured,RACE = 'MULTIPLE',IG v3.2,5,Assumption 6,If multiple races are collected then the value of RACE should be 'MULTIPLE' and the additional information will be included in the Supplemental Qualifiers dataset.,dropped previous release note which was incorrect,,,,,,,,,,,,
CG0140,3.3,1,SPC,DM,RACE,Multiple records in SUPPDM where RACE captured,RACE = 'MULTIPLE',IG v3.3,5.2,Assumption 6,If multiple races are collected then the value of RACE should be 'MULTIPLE' and the additional information will be included in the Supplemental Qualifiers dataset.,"Previous release note was incorrect.  While there is a new variable ARMNRS, it does not affect this rule.",,,,,,,,,,,,
CG0140,3.4,1,SPC,DM,RACE,Multiple records in SUPPDM where RACE captured,RACE = 'MULTIPLE',IG v3.4,5.2,Assumption 6,If multiple races are collected then the value of RACE should be 'MULTIPLE' and the additional information will be included in the Supplemental Qualifiers dataset.,No Change,,,,,,,,,,,,
CG0141,3.2,1,SPC,DM,RFENDTC,"Milestone associated with RFENDTC is end of treatment and ACTARM in ('Screen Failure', 'Not Assigned', 'Not Treated')",RFENDTC = null,IG v3.2,IG v3.2[5],IG v3.2[5][Specification: RFENDTC]|IG v3.2[5][Specification: ACTARM]|IG v3.2[5][Assumption 10],"IG v3.2[5][Specification: RFENDTC][Required for all randomized subjects; null for screen failures or unassigned subjects.]|IG v3.2[5][Specification: ACTARM][Randomized subjects who were not treated will be given a value of “Not Treated”. Values should be “Screen Failure” for screen failures and “Not Assigned” for subjects not assigned to treatment.]|IG v3.2[5][Assumption 10][This definition applies for most interventional studies, when the start of treatment is the natural and preferred starting point for study day variables and thus the logical value for RFSTDTC. In such studies, when data are submitted for subjects who are ineligible for treatment (e.g., screen failures with ARMCD=SCRNFAIL), subjects who were enrolled but not assigned to an arm (ARMCD=NOTASSGN), or subjects who were randomized but not treated (ACTARMCD=NOTTRT), RFSTDTC will be null.]","Cited Guidance expanded to fully reflect the Condition details.  As the primary attributes of the rule did not change, the rule version was not incremented. N/A for v3.3 (new variable ARMNRS)",,,,,,,,,,,,
CG0142,3.2,2,SPC,DM,RFENDTC,"Milestone associated with RFENDTC is end of treatment and ACTARM not in (‘Screen Failure’, ‘Not Assigned’, ‘Not Treated’)",RFENDTC ^= null,IG v3.2,IG v3.2[5],IG v3.2[5][Specification: RFENDTC]|IG v3.2[5][Specification: ACTARM]|IG v3.2[5][Assumption 10],"IG v3.2[5][Specification: RFENDTC][Required for all randomized subjects; null for screen failures or unassigned subjects.]|IG v3.2[5][Specification: ACTARM][Randomized subjects who were not treated will be given a value of “Not Treated”. Values should be “Screen Failure” for screen failures and “Not Assigned” for subjects not assigned to treatment.]|IG v3.2[5][Assumption 10][This definition applies for most interventional studies, when the start of treatment is the natural and preferred starting point for study day variables and thus the logical value for RFSTDTC. In such studies, when data are submitted for subjects who are ineligible for treatment (e.g., screen failures with ARMCD=SCRNFAIL), subjects who were enrolled but not assigned to an arm (ARMCD=NOTASSGN), or subjects who were randomized but not treated (ACTARMCD=NOTTRT), RFSTDTC will be null.]","For Version 2, updated Condition to include milestone concept and ""Not Treated"" constraint. N/A for v3.3 (new variable ARMNRS).",,,,,,,,,,,,
CG0143,3.2,1,SPC,DM,RFICDTC,DS.DSTERM indicates informed consent obtained,RFICDTC = earliest DS.DSSTDTC,IG v3.2,5,Specification|Assumption 13,"Specification[This will be the same as the date of informed consent in the Disposition domain, if that protocol milestone is documented. Would be null only in studies not collecting the date of informed consent.]|Assumption 13[RFICDTC should correspond to the date of the informed . . . In the event that there are multiple informed consents, this will be the date of the first one.]",,,,,,,,,,,,,
CG0143,3.3,1,SPC,DM,RFICDTC,DS.DSTERM indicates informed consent obtained,RFICDTC = earliest DS.DSSTDTC,IG v3.3,5.2,Specification|Assumption 10c,"Specification[This will be the same as the date of informed consent in the Disposition domain, if that protocol milestone is documented. Would be null only in studies not collecting the date of informed consent.]|Assumption 10c[In the event that there are multiple informed consents, this will be the date of the first one.]",,,,,,,,,,,,,
CG0143,3.4,1,SPC,DM,RFICDTC,DS.DSTERM indicates informed consent obtained,RFICDTC = earliest DS.DSSTDTC,IG v3.4,5.2,Specification|Assumption 10c,"Specification [This will be the same as the date of informed consent in the Disposition domain, if that protocol milestone is documented. Would be null only in studies not collecting the date of informed consent.]|Assumption 10c[RFICDTC should correspond to the date of the informed consent protocol milestone in DS, if that protocol milestone is documented in DS. In the event that there are multiple informed consents, this will be the date of the first one.]",Additional cited guidance,,,,,,,,,,,,
CG0145,3.2,1,SPC,DM,RFSTDTC,Milestone associated with RFSTDTC is start of treatment and ACTARM in ('Screen Failure' 'Not Assigned' 'Not Treated'),RFSTDTC = null,IG v3.2,5,Specification,Null for screen failures or unassigned subjects.,N/A for v3.3 (new variable ARMNRS),,,,,,,,,,,,
CG0146,3.2,1,SPC,DM,RFSTDTC,Milestone associated with RFSTDTC is start of treatment and ACTARM not in ('Screen Failure' 'Not Assigned' 'Not Treated'),RFSTDTC ^= null,IG v3.2,5,Specification,Required for all randomized subjects.,N/A for v3.3 (new variable ARMNRS),,,,,,,,,,,,
CG0147,3.2,1,SPC,DM,RFXENDTC,EX records present for subject,RFXENDTC = latest value of EX.EXSTDTC or EX.EXENDTC,IG v3.2,5,Specification,Equal to the latest value of EXENDTC (or the latest value of EXSTDTC if EXENDTC was not collected or is missing).,,,,,,,,,,,,,
CG0147,3.3,1,SPC,DM,RFXENDTC,EX records present for subject,RFXENDTC = latest value of EX.EXSTDTC or EX.EXENDTC,IG v3.3,5.2,Specification,Equal to the latest value of EXENDTC (or the latest value of EXSTDTC if EXENDTC was not collected or is missing).,,,,,,,,,,,,,
CG0147,3.4,1,SPC,DM,RFXENDTC,EX records present for subject,RFXENDTC = latest value of EX.EXSTDTC or EX.EXENDTC,IG v3.4,5.2,Specification,Equal to the latest value of EXENDTC (or the latest value of EXSTDTC if EXENDTC was not collected or is missing).,No Change,,,,,,,,,,,,
CG0148,3.2,2,SPC,DM,RFXSTDTC,EX records present for subject,RFXSTDTC = earliest EX.EXSTDTC,IG v3.2,5,Specification,"First date of exposure to any protocol-specified treatment or therapy, equal to the earliest value of EXSTDTC.","""for that subject"" was removed from the rule and the rule version increased to #2.  The condition was also changed to match CG0147: ""EX records present for subject""",,,,,,,,,,,,
CG0148,3.3,2,SPC,DM,RFXSTDTC,EX records present for subject,RFXSTDTC = earliest EX.EXSTDTC,IG v3.3,5.2,Specification,"First date of exposure to any protocol-specified treatment or therapy, equal to the earliest value of EXSTDTC.","""for that subject"" was removed from the rule and the rule version increased to #2.  The condition was also changed to match CG0147: ""EX records present for subject""",,,,,,,,,,,,
CG0148,3.4,2,SPC,DM,RFXSTDTC,EX records present for subject,RFXSTDTC = earliest EX.EXSTDTC,IG v3.4,5.2,Specification,"First date/time of exposure to any protocol-specified treatment or therapy, equal to the earliest value of EXSTDTC.","""for that subject"" was removed from the rule and the rule version increased to #2.  The condition was also changed to match CG0147: ""EX records present for subject""",,,,,,,,,,,,
CG0149,3.2,1,SPC,DM,SETCD,,SETCD value length <= 8,Model v1.4,2.2.6,,Maximum of 8 characters.,,,,,,,,,,,,,
CG0149,3.3,1,SPC,DM,SETCD,,SETCD value length <= 8,Model v1.7,Table 2.2.6.1,,Maximum of 8 characters.,,,,,,,,,,,,,
CG0149,3.4,1,SPC,DM,SETCD,,SETCD value length <= 8,Model v2.0,Demographics,SETCD,Maximum of 8 characters.,Reference to model section and item updated per new style,,,,,,,,,,,,
CG0150,3.2,1,SPC,DM,SUBJID,,SUBJID unique within a study,IG v3.2,5,Specification,"Subject identifier, which must be unique within the study.",,,,,,,,,,,,,
CG0150,3.3,1,SPC,DM,SUBJID,,SUBJID unique within a study,IG v3.3,5.2,Specification,"Subject identifier, which must be unique within the study.",,,,,,,,,,,,,
CG0150,3.4,1,SPC,DM,SUBJID,,SUBJID unique within a study,IG v3.4,5.2,Specification,"Subject identifier, which must be unique within the study.",No Change,,,,,,,,,,,,
CG0151,3.2,1,SPC,DM,USUBJID,,USUBJID unique within a submission,IG v3.2,5,Specification,Identifier used to uniquely identify a subject across all studies,,,,,,,,,,,,,
CG0151,3.3,1,SPC,DM,USUBJID,,USUBJID unique within a submission,IG v3.3,5.2,Specification,Identifier used to uniquely identify a subject across all studies,,,,,,,,,,,,,
CG0151,3.4,1,SPC,DM,USUBJID,,USUBJID unique within a submission,IG v3.4,5.2,Specification,Identifier used to uniquely identify a subject across all studies for all applications or submissions involving the product.,Slightly extended the cited guidance,,,,,,,,,,,,
CG0152,3.2,1,SPC,SE,ELEMENT,ETCD = 'UNPLAN',ELEMENT = null,IG v3.2,5,Specification,"The name of the Element. If ETCD has a value of ""UNPLAN"" then ELEMENT should be null.",,,,,,,,,,,,,
CG0152,3.3,1,SPC,SE,ELEMENT,ETCD = 'UNPLAN',ELEMENT = null,IG v3.3,5.3,Specification,"The name of the Element. If ETCD has a value of ""UNPLAN"" then ELEMENT should be null.",,,,,,,,,,,,,
CG0152,3.4,1,SPC,SE,ELEMENT,ETCD = 'UNPLAN',ELEMENT = null,IG v3.4,5.3,Specification,"The name of the Element. If ETCD has a value of ""UNPLAN"" then ELEMENT should be null.",No Change,,,,,,,,,,,,
CG0153,3.2,1,"SPC, TDM","DM, TA",ARMCD,,ARMCD value length <= 20,IG v3.2,4.1.2.1,,ARMCD is limited to 20 characters and does not have special character restrictions.,,,,,,,,,,,,,
CG0153,3.3,1,"SPC, TDM","DM, TA",ARMCD,,ARMCD value length <= 20,IG v3.3,4.2.1,,ARMCD is limited to 20 characters and does not have special character restrictions.,,,,,,,,,,,,,
CG0153,3.4,1,"SPC, TDM","DM, TA",ARMCD,,ARMCD value length <= 20,IG v3.4,4.2.1,,ARMCD is limited to 20 characters and does not have the character restrictions that apply to --TESTCD,Updated cited guidance to match full sentence from IG,,,,,,,,,,,,
CG0154,3.2,1,"SPC, TDM","SE, TA, TE",ETCD,ELEMENT present in dataset and ETCD present in dataset,ELEMENT and ETCD have a one-to-one relationship,IG v3.2,5|7.2,Specification,ETCD (the companion to ELEMENT) is limited to 8 characters and does not have special character restrictions.,,,,,,,,,,,,,
CG0154,3.3,1,"SPC, TDM","SE, TA, TE",ETCD,ELEMENT present in dataset and ETCD present in dataset,ELEMENT and ETCD have a one-to-one relationship,IG v3.3,5.2|7.2,Specification,ETCD (the companion to ELEMENT) is limited to 8 characters and does not have special character restrictions.,,,,,,,,,,,,,
CG0154,3.4,1,"SPC, TDM","SE, TA, TE",ETCD,ELEMENT present in dataset and ETCD present in dataset,ELEMENT and ETCD have a one-to-one relationship,IG v3.4,5.3|7.2.1|7.2.2,Specification,ETCD (the companion to ELEMENT) is limited to 8 characters and does not have special character restrictions.,Section change in SDTMIG v3.4,,,,,,,,,,,,
CG0155,3.2,1,AP,"NOT(APRELSUB, POOLDEF, FA)",DOMAIN,AP Core Domain,Value length = 4 characters beginning with 'AP' and ending with 2 character SDTM domain,AP Guide v1.0,2,,[Associated Persons datasets are given a prefix of AP-- to identify the data as AP data to and distinguish them from study subject data.][Associated Persons domain codes in the DOMAIN column of every record are also given a prefix of AP-- to identify the domains as AP domains and to distinguish them from study subject domains. AP domain codes are therefore four characters long.],,,,,,,,,,,,,
CG0155,3.3,1,AP,"NOT(APRELSUB, POOLDEF, FA)",DOMAIN,AP Core Domain,Value length = 4 characters beginning with 'AP' and ending with 2 character SDTM domain,AP Guide v1.0,2,,[Associated Persons datasets are given a prefix of AP-- to identify the data as AP data to and distinguish them from study subject data.][Associated Persons domain codes in the DOMAIN column of every record are also given a prefix of AP-- to identify the domains as AP domains and to distinguish them from study subject domains. AP domain codes are therefore four characters long.],,,,,,,,,,,,,
CG0156,3.2,1,AP,ALL,APID,APID identifies group of associated persons defined in POOLDEF,APID in POOLDEF.POOLID,AP Guide v1.0,2.1.1,Specification,"Identifier for a single associated person, a group of associated persons, or a pool of associated persons. If APID identifies a pool, POOLDEF records must exist for each associated person.",,,,,,,,,,,,,
CG0156,3.3,1,AP,ALL,APID,APID identifies group of associated persons defined in POOLDEF,APID in POOLDEF.POOLID,AP Guide v1.0,2.1.1,Specification,"Identifier for a single associated person, a group of associated persons, or a pool of associated persons. If APID identifies a pool, POOLDEF records must exist for each associated person.",,,,,,,,,,,,,
CG0156,3.4,1,AP,ALL,APID,APID identifies group of associated persons defined in POOLDEF,APID in POOLDEF.POOLID,AP Guide v1.0,2.1.1,Specification,"Identifier for a single associated person, a group of associated persons, or a pool of associated persons. If APID identifies a pool, POOLDEF records must exist for each associated person.",No Change,,,,,,,,,,,,
CG0157,3.2,1,AP,ALL,RSUBJID,Relationship described is to a study subject,RSUBJID in DM.USUBJID,AP Guide v1.0,2.1.1,Specification,RSUBJID will be populated with the USUBJID of the related subject or the POOLID of the related pool.,,,,,,,,,,,,,
CG0157,3.3,1,AP,ALL,RSUBJID,Relationship described is to a study subject,RSUBJID in DM.USUBJID,AP Guide v1.0,2.1.1,Specification,RSUBJID will be populated with the USUBJID of the related subject or the POOLID of the related pool.,,,,,,,,,,,,,
CG0157,3.4,1,AP,ALL,RSUBJID,Relationship described is to a study subject,RSUBJID in DM.USUBJID,AP Guide v1.0,2.1.1,Specification,RSUBJID will be populated with the USUBJID of the related subject or the POOLID of the related pool.,No Change,,,,,,,,,,,,
CG0158,3.2,1,AP,ALL,RSUBJID,Relationship described is to a pool,RSUBJID in POOLDEF.POOLID,AP Guide v1.0,2.1.1,Specification,RSUBJID will be populated with the USUBJID of the related subject or the POOLID of the related pool.,,,,,,,,,,,,,
CG0158,3.3,1,AP,ALL,RSUBJID,Relationship described is to a pool,RSUBJID in POOLDEF.POOLID,AP Guide v1.0,2.1.1,Specification,RSUBJID will be populated with the USUBJID of the related subject or the POOLID of the related pool.,,,,,,,,,,,,,
CG0158,3.4,1,AP,ALL,RSUBJID,Relationship described is to a pool,RSUBJID in POOLDEF.POOLID,AP Guide v1.0,2.1.1,Specification,RSUBJID will be populated with the USUBJID of the related subject or the POOLID of the related pool.,No Change,,,,,,,,,,,,
CG0159,3.2,1,AP,ALL,RSUBJID,Relationship described is to a study but not to individual study subjects,RSUBJID = null,AP Guide v1.0,2.1.1,Specification,RSUBJID will be populated with the USUBJID of the related subject or the POOLID of the related pool.,,,,,,,,,,,,,
CG0159,3.3,1,AP,ALL,RSUBJID,Relationship described is to a study but not to individual study subjects,RSUBJID = null,AP Guide v1.0,2.1.1,Specification,RSUBJID will be populated with the USUBJID of the related subject or the POOLID of the related pool.,,,,,,,,,,,,,
CG0159,3.4,1,AP,ALL,RSUBJID,Relationship described is to a study but not to individual study subjects,RSUBJID = null,AP Guide v1.0,2.1.1,Specification,RSUBJID will be populated with the USUBJID of the related subject or the POOLID of the related pool.,No Change,,,,,,,,,,,,
CG0160,3.2,1,AP,ALL,SREL,RSUBJID ^= null,Describes relationship of associated person to study subject or pool,AP Guide v1.0,2.1.1,Specification,"If RSUBJID is populated, describes the relationship of the associated person(s) identified in APID to the subject or pool identified in RSUBJID. If RDEVID is populated, describes the relationship of the associated person(s) identified in APID to the device identified in RDEVID. If RSUBJID and RDEVID are null, SREL describes the relationship of the associated person(s) identified in APID to the study identified in STUDYID",,,,,,,,,,,,,
CG0160,3.3,1,AP,ALL,SREL,RSUBJID ^= null,Describes relationship of associated person to study subject or pool,AP Guide v1.0,2.1.1,Specification,"If RSUBJID is populated, describes the relationship of the associated person(s) identified in APID to the subject or pool identified in RSUBJID. If RDEVID is populated, describes the relationship of the associated person(s) identified in APID to the device identified in RDEVID. If RSUBJID and RDEVID are null, SREL describes the relationship of the associated person(s) identified in APID to the study identified in STUDYID",,,,,,,,,,,,,
CG0160,3.4,1,AP,ALL,SREL,RSUBJID ^= null,Describes relationship of associated person to study subject or pool,AP Guide v1.0,2.1.1,Specification,"If RSUBJID is populated, describes the relationship of the associated person(s) identified in APID to the subject or pool identified in RSUBJID. If RDEVID is populated, describes the relationship of the associated person(s) identified in APID to the device identified in RDEVID. If RSUBJID and RDEVID are null, SREL describes the relationship of the associated person(s) identified in APID to the study identified in STUDYID.",No Change,,,,,,,,,,,,
CG0161,3.2,1,AP,ALL,SREL,RDEVID ^= null,Describes relationship of associated person to device identified in RDEVID,AP Guide v1.0,2.1.1,Specification,"If RSUBJID is populated, describes the relationship of the associated person(s) identified in APID to the subject or pool identified in RSUBJID. If RDEVID is populated, describes the relationship of the associated person(s) identified in APID to the device identified in RDEVID.  If RSUBJID and RDEVID are null, SREL describes the relationship of the associated person(s) identified in APID to the study identified in STUDYID",,,,,,,,,,,,,
CG0161,3.3,1,AP,ALL,SREL,RDEVID ^= null,Describes relationship of associated person to device identified in RDEVID,AP Guide v1.0,2.1.1,Specification,"If RSUBJID is populated, describes the relationship of the associated person(s) identified in APID to the subject or pool identified in RSUBJID. If RDEVID is populated, describes the relationship of the associated person(s) identified in APID to the device identified in RDEVID.  If RSUBJID and RDEVID are null, SREL describes the relationship of the associated person(s) identified in APID to the study identified in STUDYID",,,,,,,,,,,,,
CG0161,3.4,1,AP,ALL,SREL,RDEVID ^= null,Describes relationship of associated person to device identified in RDEVID,AP Guide v1.0,2.1.1,Specification,"If RSUBJID is populated, describes the relationship of the associated person(s) identified in APID to the subject or pool identified in RSUBJID. If RDEVID is populated, describes the relationship of the associated person(s) identified in APID to the device identified in RDEVID. If RSUBJID and RDEVID are null, SREL describes the relationship of the associated person(s) identified in APID to the study identified in STUDYID.",No Change,,,,,,,,,,,,
CG0162,3.2,1,AP,ALL,SREL,RSUBJID = null and RDEVID = null,Describes relationship of associated person to study identified in STUDYID,AP Guide v1.0,2.1.1,Specification,"If RSUBJID is populated, describes the relationship of the associated  person(s) identified in APID to the subject or pool identified in RSUBJID. If RDEVID is populated, describes the relationship of the associated person(s) identified in APID to the device identified in RDEVID.  If RSUBJID and RDEVID are null, SREL describes the relationship of the associated person(s) identified in APID to the study identified in STUDYID",,,,,,,,,,,,,
CG0162,3.3,1,AP,ALL,SREL,RSUBJID = null and RDEVID = null,Describes relationship of associated person to study identified in STUDYID,AP Guide v1.0,2.1.1,Specification,"If RSUBJID is populated, describes the relationship of the associated person(s) identified in APID to the subject or pool identified in RSUBJID. If RDEVID is populated, describes the relationship of the associated person(s) identified in APID to the device identified in RDEVID. If RSUBJID and RDEVID are null, SREL describes the relationship of the associated person(s) identified in APID to the study identified in STUDYID",,,,,,,,,,,,,
CG0162,3.4,1,AP,ALL,SREL,RSUBJID = null and RDEVID = null,Describes relationship of associated person to study identified in STUDYID,AP Guide v1.0,2.1.1,Specification,"If RSUBJID is populated, describes the relationship of the associated person(s) identified in APID to the subject or pool identified in RSUBJID. If RDEVID is populated, describes the relationship of the associated person(s) identified in APID to the device identified in RDEVID. If RSUBJID and RDEVID are null, SREL describes the relationship of the associated person(s) identified in APID to the study identified in STUDYID.",No Change,,,,,,,,,,,,
CG0163,3.2,1,SPC,CO,IDVAR,"Comment related to Domain Records and RDOMAIN not in (null, 'DM')",IDVAR ^= null,IG v3.2,5,Specification,Identifying variable in the parent dataset that identifies the record(s) to which the comment applies. Examples AESEQ or CMGRPID. Used only when individual comments are related to domain records. null for comments collected on separate CRFs.,,,,,,,,,,,,,
CG0163,3.3,1,SPC,CO,IDVAR,"Comment related to Domain Records and RDOMAIN not in (null, 'DM')",IDVAR ^= null,IG v3.3,5.1,Specification,Identifying variable in the parent dataset that identifies the record(s) to which the comment applies. Examples AESEQ or CMGRPID. Used only when individual comments are related to domain records. null for comments collected on separate CRFs.,,,,,,,,,,,,,
CG0163,3.4,1,SPC,CO,IDVAR,"Comment related to Domain Records and RDOMAIN not in (null, 'DM')",IDVAR ^= null,IG v3.4,5.1,Specification,Identifying variable in the parent dataset that identifies the record(s) to which the comment applies. Examples AESEQ or CMGRPID. Used only when individual comments are related to domain records. Null for comments collected on separate CRFs.,No Change,,,,,,,,,,,,
CG0164,3.2,1,SPC,CO,IDVAR,RDOMAIN = null,IDVAR = null,IG v3.2,5,Specification,Identifying variable in the parent dataset that identifies the record(s) to which the comment applies. Examples AESEQ or CMGRPID. Used only when individual comments are related to domain records. null for comments collected on separate CRFs.,,,,,,,,,,,,,
CG0164,3.3,1,SPC,CO,IDVAR,RDOMAIN = null,IDVAR = null,IG v3.3,5.1,Specification,Identifying variable in the parent dataset that identifies the record(s) to which the comment applies. Examples AESEQ or CMGRPID. Used only when individual comments are related to domain records. null for comments collected on separate CRFs.,,,,,,,,,,,,,
CG0164,3.4,1,SPC,CO,IDVAR,RDOMAIN = null,IDVAR = null,IG v3.4,5.1,Specification,Identifying variable in the parent dataset that identifies the record(s) to which the comment applies. Examples AESEQ or CMGRPID. Used only when individual comments are related to domain records. Null for comments collected on separate CRFs.,No Change,,,,,,,,,,,,
CG0166,3.2,1,SPC,CO,RDOMAIN,IDVARVAL ^= null,RDOMAIN ^= null,IG v3.2,5,Specification,Value of identifying variable of the parent record(s). Used only when individual comments are related to domain records. null for comments collected on separate CRFs.,,,,,,,,,,,,,
CG0166,3.3,1,SPC,CO,RDOMAIN,IDVARVAL ^= null,RDOMAIN ^= null,IG v3.3,5.1,Specification,Value of identifying variable of the parent record(s). Used only when individual comments are related to domain records. null for comments collected on separate CRFs.,,,,,,,,,,,,,
CG0166,3.4,1,SPC,CO,RDOMAIN,IDVARVAL ^= null,RDOMAIN ^= null,IG v3.4,5.1,Specification,Two-character abbreviation for the domain of the parent record(s). Null for comments collected on a general comments or additional information CRF page.,No Change,,,,,,,,,,,,
CG0167,3.2,1,SPC,CO,GEN,,"Comments are unsolicited, free-text and voluntary",IG v3.2,5,Specification,"The Comments special-purpose domain provides a solution for submitting free-text comments related to data in one or more SDTM domains (as described in Section 8: 8.5, Relating Comments To A Parent Domain) or collected on a separate CRF page dedicated to comments. Comments are generally not responses to specific questions; instead, comments usually consist of voluntary, free-text or unsolicited observations.",,,,,,,,,,,,,
CG0167,3.3,1,SPC,CO,GEN,,"Comments are unsolicited, free-text and voluntary",IG v3.3,5.1,Specification,"The Comments special-purpose domain provides a solution for submitting free-text comments related to data in one or more SDTM domains (as described in Section 8: 8.5, Relating Comments To A Parent Domain) or collected on a separate CRF page dedicated to comments. Comments are generally not responses to specific questions; instead, comments usually consist of voluntary, free-text or unsolicited observations.",,,,,,,,,,,,,
CG0167,3.4,1,SPC,CO,GEN,,"Comments are unsolicited, free-text and voluntary",IG v3.4,5.1,Assumption 1,"The Comments special-purpose domain provides a solution for submitting free-text comments related to data in one or more SDTM domains (as described in Section 8.5, Relating Comments to a Parent Domain) or collected on a separate CRF page dedicated to comments. Comments are generally not responses to specific questions; instead, comments usually consist of voluntary, free-text or unsolicited observations.",No Change,,,,,,,,,,,,
CG0168,3.2,1,SPC,CO,CODTC,IDVAR ^= null,CODTC = null,IG v3.2,5,Specification,"[Date/time of comment on dedicated comment form. Should be null if this is a child record of another domain or if comment date was not collected.][Those related to a specific parent record or group of parent records, in which case the value of the variable RDOMAIN is set to the DOMAIN code of the parent record(s) and the variables IDVAR and IDVARVAL are populated with the key variable name and value of the parent record(s).][Assumptions for populating IDVAR and IDVARVAL are further described in Section 8: 8.5, Relating Comments To A Parent Domain. CODTC should be null because the timing of the parent record(s) is inherited by the comment record. See example, Rows 3-5.]",,,,,,,,,,,,,
CG0168,3.3,1,SPC,CO,CODTC,IDVAR ^= null,CODTC = null,IG v3.3,5.1,Specification,"[Date/time of comment on dedicated comment form. Should be null if this is a child record of another domain or if comment date was not collected.][Those related to a specific parent record or group of parent records, in which case the value of the variable RDOMAIN is set to the DOMAIN code of the parent record(s) and the variables IDVAR and IDVARVAL are populated with the key variable name and value of the parent record(s).][Assumptions for populating IDVAR and IDVARVAL are further described in Section 8: 8.5, Relating Comments To A Parent Domain. CODTC should be null because the timing of the parent record(s) is inherited by the comment record. See example, Rows 3-5.]",,,,,,,,,,,,,
CG0168,3.4,1,SPC,CO,CODTC,IDVAR ^= null,CODTC = null,IG v3.4,5.1,Specification|Assumption 2c,"Specification[Date/time of comment on dedicated comment form. Should be null if this is a child record of another domain or if comment date was not collected.]|Assumption 2c[Those related to a specific parent record or group of parent records, in which case the value of the variable RDOMAIN is set to the DOMAIN code of the parent record(s) and the variables IDVAR and IDVARVAL are populated with the key variable name and value of the parent record(s). Assumptions for populating IDVAR and IDVARVAL are further described in Section 8.5, Relating Comments to a Parent Domain. CODTC should be null because the timing of the parent record(s) is inherited by the comment record. See example, Rows 3-5.]",Updated for multiple items,,,,,,,,,,,,
CG0169,3.2,1,SPC,CO,COVAL,No comment > 200 characters,COVALn not present in dataset,IG v3.2,5,Assumption 3,"When the comment text is longer than 200 characters, the first 200 characters of the comment will be in COVAL, the next 200 in COVAL1, and additional text stored as needed to COVALn. See example, Rows 3-4.",The Item reference for the cited guidance has been corrected.,,,,,,,,,,,,
CG0169,3.3,1,SPC,CO,COVAL,No comment > 200 characters,COVALn not present in dataset,IG v3.3,5.1,Assumption 3,"When the comment text is longer than 200 characters, the first 200 characters of the comment will be in COVAL, the next 200 in COVAL1, and additional text stored as needed to COVALn. See example, Rows 3-4.",The Item reference for the cited guidance has been corrected.,,,,,,,,,,,,
CG0169,3.4,1,SPC,CO,COVAL,No comment > 200 characters,COVALn not present in dataset,IG v3.4,5.1,Assumption 3,"When the comment text is longer than 200 characters, the first 200 characters of the comment will be in COVAL, the next 200 in COVAL1, and additional text stored as needed to COVALn. See example, Rows 3-4. ",No Change,,,,,,,,,,,,
CG0171,3.2,1,FND,SS,SSDTC,SSSTRESC = 'DEAD',SSDTC >= DM.DTHDTC,IG v3.2,6.3,Assumption 2,"Subject Status does not contain details about the circumstances of a subject's status. The response to the status assessment may trigger collection of additional details but those details are to be stored in appropriate separate domains. For example, if a subject's Survival Status is ""DEAD"", the date of death must be stored in DM and within a final disposition record in DS. Only the status collection date, the status question and the status response are stored in SS.",,,,,,,,,,,,,
CG0171,3.3,1,FND,SS,SSDTC,SSSTRESC = 'DEAD',SSDTC >= DM.DTHDTC,IG v3.3,6.3.15,Assumption 1,"Subject Status does not contain details about the circumstances of a subject's status. The response to the status assessment may trigger collection of additional details but those details are to be stored in appropriate separate domains. For example, if a subject's Survival Status is ""DEAD"", the date of death must be stored in DM and within a final disposition record in DS. Only the status collection date, the status question and the status response are stored in SS.",,,,,,,,,,,,,
CG0171,3.4,1,FND,SS,SSDTC,SSSTRESC = 'DEAD',SSDTC >= DM.DTHDTC,IG v3.4,6.3.11,Assumption 1,"Subject Status does not contain details about the circumstances of a subject's status. The response to the status assessment may trigger collection of additional details, but those details are to be stored in appropriate separate domains. For example, if a subject's survival status is ""DEAD"", the date of death must be stored in DM and within a final disposition record in DS. Only the status collection date, the status question, and the status response are stored in SS.",No Change,,,,,,,,,,,,
CG0172,3.2,2,FND,SS,SSDTC,SSSTRESC = 'DEAD',SSDTC >= all DS.DSSTDTC,IG v3.2,6.3,Assumption 2,"Subject Status does not contain details about the circumstances of a subject's status. The response to the status assessment may trigger collection of additional details but those details are to be stored in appropriate separate domains. For example, if a subject's Survival Status is ""DEAD"", the date of death must be stored in DM and within a final disposition record in DS. Only the status collection date, the status question and the status response are stored in SS.","Updated Rule from ""SSDTC >= DS.DSSTDTC"".",,,,,,,,,,,,
CG0172,3.3,2,FND,SS,SSDTC,SSSTRESC = 'DEAD',SSDTC >= all DS.DSSTDTC,IG v3.3,6.3.15,Assumption 1,"Subject Status does not contain details about the circumstances of a subject’s status. The response to the status assessment may trigger collection of additional details but those details are to be stored in appropriate separate domains. For example, if a subject’s Survival Status is “DEAD”, the date of death must be stored in DM and within a final disposition record in DS. Only the status collection date, the status question and the status response are stored in SS.","Updated Rule from ""SSDTC >= DS.DSSTDTC"".",,,,,,,,,,,,
CG0172,3.4,2,FND,SS,SSDTC,SSSTRESC = 'DEAD',SSDTC >= all DS.DSSTDTC,IG v3.4,6.3.11,Assumption 1,"Subject Status does not contain details about the circumstances of a subject's status. The response to the status assessment may trigger collection of additional details, but those details are to be stored in appropriate separate domains. For example, if a subject's survival status is ""DEAD"", the date of death must be stored in DM and within a final disposition record in DS. Only the status collection date, the status question, and the status response are stored in SS.",No Change,,,,,,,,,,,,
CG0173,3.2,1,FND,FA,FATESTCD,"Collected data fit a Qualifier variable listed in SDTM: Sections 2.2.1, 2.2.2, or 2.2.3, and are represented in the Findings About domain",The name of the variable is used as the value of FATESTCD.,IG v3.2,6.4.3,,"When collected data fit a Qualifier variable listed in SDTM: Sections 2.2.1, 2.2.2, or 2.2.3, and are represented in the Findings About domain, then the name of the variable should be used as the value of FATESTCD.","removed ""Specification"" from item guidance",,,,,,,,,,,,
CG0173,3.3,1,FND,FA,FATESTCD,"Collected data fit a Qualifier variable listed in SDTM: Sections 2.2.1, 2.2.2, or 2.2.3, and are represented in the Findings About domain",The name of the variable is used as the value of FATESTCD.,IG v3.3,6.4.3,,"When collected data fit a Qualifier variable listed in SDTM: Sections 2.2.1, 2.2.2, or 2.2.3, and are represented in the Findings About domain, then the name of the variable should be used as the value of FATESTCD.","removed ""Specification"" from item guidance",,,,,,,,,,,,
CG0173,3.4,1,FND,FA,FATESTCD,"Collected data fit a Qualifier variable listed in SDTM: Sections 2.2.1, 2.2.2, or 2.2.3, and are represented in the Findings About domain",The name of the variable is used as the value of FATESTCD.,IG v3.4,6.4.3,,"When collected data fit a Qualifier variable listed in SDTM: Sections 3.1.1, 3.1.2, or 3.1.3, and are represented in the Findings About domain, then the name of the variable should be used as the value of FATESTCD.",The cited SDTM sections have changed.  SDS-1655 was created to fix the text used for guidance.  The version here is correct,,,,,,,,,,,,
CG0174,3.2,1,FND,FA,FAOBJ,Related record present in parent domain dataset,"FAOBJ in (--TERM, --TRT, --DECOD)",IG v3.2,6.4.3,,"In general, the value in FAOBJ should match the value in --TERM or --TRT, unless the parent domain is dictionary coded or subject to controlled terminology, in which case FAOBJ should then match the value in --DECOD.","removed ""Specification"" from item guidance",,,,,,,,,,,,
CG0174,3.3,1,FND,FA,FAOBJ,Related record present in parent domain dataset,"FAOBJ in (--TERM, --TRT, --DECOD)",IG v3.3,6.4.3,,"In general, the value in FAOBJ should match the value in --TERM or --TRT, unless the parent domain is dictionary coded or subject to controlled terminology, in which case FAOBJ should then match the value in --DECOD.","removed ""Specification"" from item guidance",,,,,,,,,,,,
CG0174,3.4,1,FND,FA,FAOBJ,Related record present in parent domain dataset,"FAOBJ in (--TERM, --TRT, --DECOD)",IG v3.4,6.4.3,,"If an FA record does have a parent record, the value in FAOBJ should match the value in --TERM or --TRT, unless the parent domain is dictionary coded or subject to controlled terminology, in which case FAOBJ should match the value in --DECOD.",No Change,,,,,,,,,,,,
CG0175,3.2,1,FND,IE,IEORRES,IECAT = 'EXCLUSION',IEORRES = 'Y',IG v3.2,6.3,Assumption 2,"The intent of the domain model is to collect response to only those criteria that the subject did not meet, and not the responses to all criteria.",,,,,,,,,,,,,
CG0175,3.3,1,FND,IE,IEORRES,IECAT = 'EXCLUSION',IEORRES = 'Y',IG v3.3,6.3.4,Assumption 1,"The intent of the domain model is to collect response to only those criteria that the subject did not meet, and not the responses to all criteria.",,,,,,,,,,,,,
CG0175,3.4,1,FND,IE,IEORRES,IECAT = 'EXCLUSION',IEORRES = 'Y',IG v3.4,6.3.4,Assumption 1,"The intent of the domain model is to collect responses to only those criteria that the subject did not meet, and not the responses to all criteria. ",No Change,,,,,,,,,,,,
CG0176,3.2,1,FND,IE,IEORRES,IECAT = 'INCLUSION',IEORRES = 'N',IG v3.2,6.3,Assumption 2,"The intent of the domain model is to collect response to only those criteria that the subject did not meet, and not the responses to all criteria.",,,,,,,,,,,,,
CG0176,3.3,1,FND,IE,IEORRES,IECAT = 'INCLUSION',IEORRES = 'N',IG v3.3,6.3.4,Assumption 1,"The intent of the domain model is to collect response to only those criteria that the subject did not meet, and not the responses to all criteria.",,,,,,,,,,,,,
CG0176,3.4,1,FND,IE,IEORRES,IECAT = 'INCLUSION',IEORRES = 'N',IG v3.4,6.3.4,Assumption 1,"The intent of the domain model is to collect responses to only those criteria that the subject did not meet, and not the responses to all criteria. ",No Change,,,,,,,,,,,,
CG0177,3.2,1,FND,IE,IESTRESC,,IESTRESC = IEORRES,IG v3.2,6.3,Specification,Response to Inclusion/Exclusion criterion result in standard format.,,,,,,,,,,,,,
CG0177,3.3,1,FND,IE,IESTRESC,,IESTRESC = IEORRES,IG v3.3,6.3.4,Specification,Response to Inclusion/Exclusion criterion result in standard format.,,,,,,,,,,,,,
CG0177,3.4,1,FND,IE,IESTRESC,,IESTRESC = IEORRES,IG v3.4,6.3.4,Specification,Response to Inclusion/Exclusion criterion result in standard format.,No Change,,,,,,,,,,,,
CG0178,3.2,1,FND,IE,IETEST,,IETEST in TI.IETEST,IG v3.2,6.3,Assumption 2,The complete list of Inclusion/Exclusion criteria can be found in the TI trial inclusion/exclusion criteria dataset described in Section 7.4 - Trial Summary and Eligibility: Trial Inclusion/Exclusion Criteria (TI).,,,,,,,,,,,,,
CG0178,3.3,1,FND,IE,IETEST,,IETEST in TI.IETEST,IG v3.3,6.3.4,Assumption 1,The complete list of Inclusion/Exclusion criteria can be found in the TI trial inclusion/exclusion criteria dataset described in Section 7.4 - Trial Summary and Eligibility: Trial Inclusion/Exclusion Criteria (TI).,,,,,,,,,,,,,
CG0178,3.4,1,FND,IE,IETEST,,IETEST in TI.IETEST,IG v3.4,6.3.4,Assumption 1,"The complete list of Inclusion/Exclusion criteria can be found in the Trial Inclusion/Exclusion Criteria (TI) dataset described in Section 7.4.1, Trial Inclusion/Exclusion Criteria.",No Change,,,,,,,,,,,,
CG0179,3.2,1,FND,IE,IETESTCD,,IETESTCD in TI.IETESTCD,IG v3.2,6.3,Assumption 2,The complete list of Inclusion/Exclusion criteria can be found in the TI trial inclusion/exclusion criteria dataset described in Section 7.4 - Trial Summary and Eligibility: Trial Inclusion/Exclusion Criteria (TI).,,,,,,,,,,,,,
CG0179,3.3,1,FND,IE,IETESTCD,,IETESTCD in TI.IETESTCD,IG v3.3,6.3.4,Assumption 1,"The complete list of Inclusion/Exclusion criteria can be found in the Trial Inclusion/Exclusion Criteria (TI) dataset described in Section 7.4.1, Trial Inclusion/Exclusion Criteria.",,,,,,,,,,,,,
CG0179,3.4,1,FND,IE,IETESTCD,,IETESTCD in TI.IETESTCD,IG v3.4,6.3.4,Assumption 1,"The complete list of Inclusion/Exclusion criteria can be found in the Trial Inclusion/Exclusion Criteria (TI) dataset described in Section 7.4.1, Trial Inclusion/Exclusion Criteria.",Cited guidance updated; will be no change if 3.3 is updated as per jira ticket,,,,,,,,,,,,
CG0180,3.2,1,FND,LB,LBORNRLO,LBORRES ^= continuous measurement,LBORNRLO = null,IG v3.2,6.3,Specification,Lower end of reference range for continuous measurements in original units. Should be populated only for continuous results.,,,,,,,,,,,,,
CG0180,3.3,1,FND,LB,LBORNRLO,LBORRES ^= continuous measurement,LBORNRLO = null,IG v3.3,6.3.6,Specification,Lower end of reference range for continuous measurements in original units. Should be populated only for continuous results.,,,,,,,,,,,,,
CG0180,3.4,1,FND,LB,LBORNRLO,LBORRES ^= continuous measurement,LBORNRLO = null,IG v3.4,6.3.5.6,Specification,Lower end of reference range for continuous measurement in original units. Should be populated only for continuous results.,Section change in SDTMIG v3.4,,,,,,,,,,,,
CG0181,3.2,1,FND,LB,LBORNRHI,LBORRES ^= continuous measurement,LBORNRHI = null,IG v3.2,6.3,Specification,Upper end of reference range for continuous measurements in original units. Should be populated only for continuous results.,,,,,,,,,,,,,
CG0181,3.3,1,FND,LB,LBORNRHI,LBORRES ^= continuous measurement,LBORNRHI = null,IG v3.3,6.3.6,Specification,Upper end of reference range for continuous measurements in original units. Should be populated only for continuous results.,,,,,,,,,,,,,
CG0181,3.4,1,FND,LB,LBORNRHI,LBORRES ^= continuous measurement,LBORNRHI = null,IG v3.4,6.3.5.6,Specification,Upper end of reference range for continuous measurement in original units. Should be populated only for continuous results.,Section change in SDTMIG v3.4,,,,,,,,,,,,
CG0182,3.2,1,FND,LB,LBSTNRLO,LBORRES ^= continuous measurement,LBSTNRLO = null,IG v3.2,6.3,Specification,Lower end of reference range for continuous measurements in original units. Should be populated only for continuous results.,,,,,,,,,,,,,
CG0182,3.3,1,FND,LB,LBSTNRLO,LBORRES ^= continuous measurement,LBSTNRLO = null,IG v3.3,6.3.6,Specification,Lower end of reference range for continuous measurements in original units. Should be populated only for continuous results.,,,,,,,,,,,,,
CG0182,3.4,1,FND,LB,LBSTNRLO,LBORRES ^= continuous measurement,LBSTNRLO = null,IG v3.4,6.3.5.6,Specification,Lower end of reference range for continuous measurements for LBSTRESC/LBSTRESN in standardized units. Should be populated only for continuous results.,Section change in SDTMIG v3.4,,,,,,,,,,,,
CG0183,3.2,1,FND,LB,LBSTNRHI,LBORRES ^= continuous measurement,LBSTNRHI = null,IG v3.2,6.3,Specification,Upper end of reference range for continuous measurements in original units. Should be populated only for continuous results.,,,,,,,,,,,,,
CG0183,3.3,1,FND,LB,LBSTNRHI,LBORRES ^= continuous measurement,LBSTNRHI = null,IG v3.3,6.3.6,Specification,Upper end of reference range for continuous measurements in original units. Should be populated only for continuous results.,,,,,,,,,,,,,
CG0183,3.4,1,FND,LB,LBSTNRHI,LBORRES ^= continuous measurement,LBSTNRHI = null,IG v3.4,6.3.5.6,Specification,Upper end of reference range for continuous measurements in standardized units. Should be populated only for continuous results.,Section change in SDTMIG v3.4,,,,,,,,,,,,
CG0184,3.2,1,FND,LB,LBSTNRC,LBORRES = continuous measurement,LBSTNRC = null,IG v3.2,6.3,Specification,"For normal range values that are character in ordinal scale or if categorical ranges were supplied (e.g., ""-1 to +1"", ""NEGATIVE TO TRACE"").",,,,,,,,,,,,,
CG0184,3.3,1,FND,LB,LBSTNRC,LBORRES = continuous measurement,LBSTNRC = null,IG v3.3,6.3.6,Specification,"For normal range values that are character in ordinal scale or if categorical ranges were supplied (e.g., ""-1 to +1"", ""NEGATIVE TO TRACE"").",,,,,,,,,,,,,
CG0184,3.4,1,FND,LB,LBSTNRC,LBORRES = continuous measurement,LBSTNRC = null,IG v3.4,6.3.5.6,Specification,"For normal range values that are character in ordinal scale or if categorical ranges were supplied (e.g., ""-1 to +1"", ""NEGATIVE TO TRACE"").",Section change in SDTMIG v3.4,,,,,,,,,,,,
CG0185,3.2,1,FND,LB,LBTOXGR,Numeric scale used,LBTOXGR is a numeric value,IG v3.2,6.3,Specification,"If value is from a numeric scale, represent only the number (e.g., ""2"" and not ""Grade 2"").",,,,,,,,,,,,,
CG0185,3.3,1,FND,LB,LBTOXGR,Numeric scale used,LBTOXGR is a numeric value,IG v3.3,6.3.6,Specification,"If value is from a numeric scale, represent only the number (e.g., ""2"" and not ""Grade 2"").",,,,,,,,,,,,,
CG0185,3.4,1,FND,LB,LBTOXGR,Numeric scale used,LBTOXGR is a numeric value,IG v3.4,6.3.5.6,Specification,"If value is from a numeric scale, represent only the number (e.g., ""2"" and not ""Grade 2"").",Section change in SDTMIG v3.4,,,,,,,,,,,,
CG0186,3.2,2,FND,LB,LBORNRLO,,LBORNRLO is expressed using the units in LBORRESU,IG v3.2,6.3,Specification,Lower end of reference range for continuous measurements in original units.,,,,,,,,,,,,,
CG0186,3.3,2,FND,LB,LBORNRLO,,LBORNRLO is expressed using the units in LBORRESU,IG v3.3,6.3.6,Specification,Lower end of reference range for continuous measurements in original units.,,,,,,,,,,,,,
CG0186,3.4,2,FND,LB,LBORNRLO,,LBORNRLO is expressed using the units in LBORRESU,IG v3.4,6.3.5.6,Specification,Lower end of reference range for continuous measurement in original units.,Updated wording of rule and section.,,,,,,,,,,,,
CG0187,3.2,2,FND,LB,LBORNRHI,,LBORNRHI is expressed using the units in LBORRESU,IG v3.2,6.3,Specification,Upper end of reference range for continuous measurements in original units.,,,,,,,,,,,,,
CG0187,3.3,2,FND,LB,LBORNRHI,,LBORNRHI is expressed using the units in LBORRESU,IG v3.3,6.3.6,Specification,Upper end of reference range for continuous measurements in original units.,,,,,,,,,,,,,
CG0187,3.4,2,FND,LB,LBORNRHI,,LBORNRHI is expressed using the units in LBORRESU,IG v3.4,6.3.5.6,Specification,Upper end of reference range for continuous measurement in original units.,Updated wording of rule and section.,,,,,,,,,,,,
CG0188,3.2,2,FND,LB,LBSTNRLO,,LBSTNRLO  is expressed using the units in LBSTRESU,IG v3.2,6.3,Specification,Lower end of reference range for continuous measurements for LBSTRESC/LBSTRESN in standardized units.,,,,,,,,,,,,,
CG0188,3.3,2,FND,LB,LBSTNRLO,,LBSTNRLO  is expressed using the units in LBSTRESU,IG v3.3,6.3.6,Specification,Lower end of reference range for continuous measurements for LBSTRESC/LBSTRESN in standardized units.,,,,,,,,,,,,,
CG0188,3.4,2,FND,LB,LBSTNRLO,,LBSTNRLO  is expressed using the units in LBSTRESU,IG v3.4,6.3.5.6,Specification,Lower end of reference range for continuous measurements for LBSTRESC/LBSTRESN in standardized units.,Updated wording of rule and section.,,,,,,,,,,,,
CG0189,3.2,2,FND,LB,LBSTNRHI,,LBSTNRHI is expressed using the units in LBSTRESU,IG v3.2,6.3,Specification,Upper end of reference range for continuous measurements in standardized units.,,,,,,,,,,,,,
CG0189,3.3,2,FND,LB,LBSTNRHI,,LBSTNRHI is expressed using the units in LBSTRESU,IG v3.3,6.3.6,Specification,Upper end of reference range for continuous measurements in standardized units.,,,,,,,,,,,,,
CG0189,3.4,2,FND,LB,LBSTNRHI,,LBSTNRHI is expressed using the units in LBSTRESU,IG v3.4,6.3.5.6,Specification,Upper end of reference range for continuous measurements in standardized units.,Updated wording of rule and section.,,,,,,,,,,,,
CG0190,3.2,2,FND,LB,LBSTNRC,LBSTRESU ^= null,LBSTNRC  is expressed using the units in LBSTRESU,IG v3.2,6.3,Specification,Reference Range for Char Rslt-Std Units,,,,,,,,,,,,,
CG0190,3.3,2,FND,LB,LBSTNRC,LBSTRESU ^= null,LBSTNRC  is expressed using the units in LBSTRESU,IG v3.3,6.3.6,Specification,Reference Range for Char Rslt-Std Units,,,,,,,,,,,,,
CG0190,3.4,2,FND,LB,LBSTNRC,LBSTRESU ^= null,LBSTNRC  is expressed using the units in LBSTRESU,IG v3.4,6.3.5.6,Specification,Reference Range for Char Rslt-Std Units,Updated wording of rule and section.,,,,,,,,,,,,
CG0191,3.2,1,FND,MS,GEN,MS dataset present in study,MB dataset present in study,IG v3.2,2.6|6.3,"2.6[Item 1, Bullet 5]|6.3[MS Assumption 1]","2.6[Item 1, Bullet 5][The domain pair uses DOMAIN as an Identifier to group parent records (e.g., MB) from child records (e.g., MS) and enables a dataset-level relationship to be described in RELREC.]|6.3[MS Assumption 1][Definition: The MS domain is designed to store any findings related to the organisms found and submitted in MB.]",,,,,,,,,,,,,
CG0191,3.3,1,FND,MS,GEN,MS dataset present in study,MB dataset present in study,IG v3.3,2.6|6.3.7,2.6[Item 1]|6.3.7[Bullet 5],"2.6[Item 1][The domain pair uses DOMAIN as an Identifier to group parent records (e.g., MB) from child records (e.g., MS) and enables a dataset-level relationship to be described in RELREC.]|6.3.7[MS is used for representing data from drug susceptibility testing on the organisms identified in MB.]",,,,,,,,,,,,,
CG0191,3.4,1,FND,MS,GEN,MS dataset present in study,MB dataset present in study,IG v3.4,2.6|6.3.5.4," 2.6[Item 1, bullet 5]|6.3.5.4","2.6 [Item 1, bullet 5] [The domain pair uses DOMAIN as an Identifier to group parent records (e.g., MB) from child records (e.g., MS) and enables a dataset-level relationship to be described in RELREC.] | 6.3.5.4 [MS is used for representing data from drug susceptibility testing on the organisms identified in MB.]","Updated section number, fixed citation in item/guidance.",,,,,,,,,,,,
CG0192,3.2,1,FND,MB,MBTESTCD,Organisms present in the specimen,MBTESTCD = 'ORGANISM',IG v3.2,6.3,Assumption 3,3. MBTESTCD value for organisms present in a specimen is 'ORGANISM'.,"Not applicable to 3.3, as test code terminology expectations have changed.",,,,,,,,,,,,
CG0193,3.2,2,FND,MB,MBRESCAT,MBTESTCD = 'ORGANISM' and MBSTRESC ^= 'NO GROWTH' and MBMETHOD ^= 'GRAM STAIN',MBRESCAT ^= null,IG v3.2,6.3,Assumption 6,MBRESCAT is expected in all records where a microorganism has been identified to differentiate between colonizing organisms and the one(s) that are causing the infection. It is not expected when there is “No growth” or when the results are from a gram stain.,"Condition updated from ""MBTESTCD = 'ORGANISM'"".  Not applicable to 3.3, as test code terminology expectations have changed.",,,,,,,,,,,,
CG0196,3.2,1,FND,PE,PEORRES,PEORRES ^= null and no abnormal findings,PEORRES = 'NORMAL',IG v3.2,6.3,,"Text description of any abnormal findings. If the examination was completed and there were no abnormal findings, the value should be NORMAL.",,,,,,,,,,,,,
CG0196,3.3,1,FND,PE,PEORRES,PEORRES ^= null and no abnormal findings,PEORRES = 'NORMAL',IG v3.3,6.3.12,,"Text description of any abnormal findings. If the examination was completed and there were no abnormal findings, the value should be NORMAL.",,,,,,,,,,,,,
CG0196,3.4,1,FND,PE,PEORRES,PEORRES ^= null and no abnormal findings,PEORRES =  'NORMAL',IG v3.4,6.3.8,Specification,"If the examination was completed and there were no abnormal findings, the value should be ""NORMAL"".",Section change in SDTMIG v3.4,,,,,,,,,,,,
CG0197,3.2,1,FND,PE,PESTRESC,PESTRESC ^= null,PESTRESC = PEORRES OR a dictionary coded preferred term,IG v3.2,6.3,,"If there are findings for a body system, then either the dictionary preferred term (if findings are coded using a dictionary) or PEORRES (if findings are not coded) should appear here.",,,,,,,,,,,,,
CG0197,3.3,1,FND,PE,PESTRESC,PESTRESC ^= null,PESTRESC = PEORRES OR a dictionary coded preferred term,IG v3.3,6.3.12,,"If there are findings for a body system, then either the dictionary preferred term (if findings are coded using a dictionary) or PEORRES (if findings are not coded) should appear here.",,,,,,,,,,,,,
CG0197,3.4,1,FND,PE,PESTRESC,PESTRESC ^= null,PESTRESC = PEORRES OR a dictionary coded preferred term,IG v3.4,6.3.8,Specification,"If there are findings for a body system, then either the dictionary preferred term (if findings are coded using a dictionary) or PEORRES (if findings are not encoded) should appear here.",Section change in SDTMIG v3.4,,,,,,,,,,,,
CG0198,3.2,1,SPC,RELREC,GEN,,Relationships represented in RELREC are collected relationships,IG v3.2,8.2,,"Relationships represented in RELREC are collected relationships, either by explicit references or check boxes on the CRF, or by design of the CRF, such as vital signs captured during an exercise stress test.",,,,,,,,,,,,,
CG0198,3.3,1,SPC,RELREC,GEN,,Relationships represented in RELREC are collected relationships,IG v3.3,8.2,,"Relationships represented in RELREC are collected relationships, either by explicit references or check boxes on the CRF, or by design of the CRF, such as vital signs captured during an exercise stress test.",,,,,,,,,,,,,
CG0198,3.4,1,SPC,RELREC,GEN,,Relationships represented in RELREC are collected relationships,IG v3.4,8.2,,"Relationships represented in RELREC are collected relationships, either by explicit references or check boxes on the CRF, or by design of the CRF, such as vital signs captured during an exercise stress test.",No Change,,,,,,,,,,,,
CG0200,3.2,1,SPC,RELREC,RELID,,Within a subject each unique RELID is present on multiple RELREC records,IG v3.2,8.2.1,Specification,"All records for the same USUBJID that have the same RELID are considered ""related/associated.""",,,,,,,,,,,,,
CG0200,3.3,1,SPC,RELREC,RELID,,Within a subject each unique RELID is present on multiple RELREC records,IG v3.3,8.2.1,Specification,"All records for the same USUBJID that have the same RELID are considered ""related/associated.""",,,,,,,,,,,,,
CG0200,3.4,1,SPC,RELREC,RELID,,Within a subject each unique RELID is present on multiple RELREC records,IG v3.4,8.2.1,Specification,"All records for the same USUBJID that have the same RELID are considered ""related/associated.""",No Change,,,,,,,,,,,,
CG0201,3.2,1,SPC,RELREC,IDVAR,IDVARVAL = null and USUBJID = null,IDVAR ^= --SEQ,IG v3.2,8.3.1,Example data,"This example shows how to use the RELREC dataset to represent related information that is submitted as two datasets that have a one-to-many relationship. in the example below all the records in one domain are being related to all of the records in the other, so both USUBJID and IDVARVAL are null.",,,,,,,,,,,,,
CG0201,3.3,1,SPC,RELREC,IDVAR,IDVARVAL = null and USUBJID = null,IDVAR ^= --SEQ,IG v3.3,8.3.1,Example data,"This example shows how to use the RELREC dataset to represent related information that is submitted as two datasets that have a one-to-many relationship. in the example below all the records in one domain are being related to all of the records in the other, so both USUBJID and IDVARVAL are null.",,,,,,,,,,,,,
CG0201,3.4,1,SPC,RELREC,IDVAR,IDVARVAL = null and USUBJID = null,IDVAR ^= --SEQ,IG v3.4,8.3.1,Example data,"This example shows how to use the RELREC dataset to represent related information that is submitted as two datasets that have a one-to-many relationship. in the example below all the records in one domain are being related to all of the records in the other, so both USUBJID and IDVARVAL are null.... Since IDVAR identifies the keys that can be used to merge/join records between the datasets, --SEQ cannot be used because --SEQ only has meaning within a subject within a dataset, not across datasets.",Cited guidance has been expanded for clarity.,,,,,,,,,,,,
CG0202,3.2,2,SPC,SUPP--,QEVAL,QORIG = 'Assigned',QEVAL ^= null,IG v3.2,8.4,,"For objective data, the value in QEVAL will be null. For subjective data (when QORIG=”ASSIGNED”), the value in QEVAL should reflect the role of the person or institution assigning the value (e.g., SPONSOR or ADJUDICATION COMMITTEE).","Change to Condition from ""QORIG = 'ASSIGNED'"" based on published terminology.",,,,,,,,,,,,
CG0202,3.3,2,SPC,SUPP--,QEVAL,QORIG = 'Assigned',QEVAL ^= null,IG v3.3,8.4,,"For objective data, the value in QEVAL will be null. For subjective data (when QORIG=”ASSIGNED”), the value in QEVAL should reflect the role of the person or institution assigning the value (e.g., SPONSOR or ADJUDICATION COMMITTEE).","Change to Condition from ""QORIG = 'ASSIGNED'"" based on published terminology.",,,,,,,,,,,,
CG0203,3.2,1,SPC,SUPP--,IDVAR,RDOMAIN ^= 'DM',IDVAR ^= null,IG v3.2,8.4.1,,"A record in a SUPP-- dataset relates back to its parent record(s) via the key identified by the STUDYID, RDOMAIN,and IDVAR/IDVARVAL variables. An exception is SUPP-- dataset records that are related to Demographics (DM) records, such as the Intent To Treat (ITT) and Safety (SAFETY) subject-level population flags, where both IDVAR and IDVARVAL will be null because the key variables STUDYID, RDOMAIN, and USUBJID are sufficient to identify the unique parent record in DM (DM has one record per USUBJID).",,,,,,,,,,,,,
CG0203,3.3,1,SPC,SUPP--,IDVAR,RDOMAIN ^= 'DM',IDVAR ^= null,IG v3.3,8.4.1,,"A record in a SUPP-- dataset relates back to its parent record(s) via the key identified by the STUDYID, RDOMAIN,and IDVAR/IDVARVAL variables. An exception is SUPP-- dataset records that are related to Demographics (DM) records, such as the Intent To Treat (ITT) and Safety (SAFETY) subject-level population flags, where both IDVAR and IDVARVAL will be null because the key variables STUDYID, RDOMAIN, and USUBJID are sufficient to identify the unique parent record in DM (DM has one record per USUBJID).",,,,,,,,,,,,,
CG0203,3.4,1,SPC,SUPP--,IDVAR,RDOMAIN ^= 'DM',IDVAR ^= null,IG v3.4,8.4.1,,"A record in a SUPP-- dataset relates back to its parent record(s) via the key identified by the STUDYID, RDOMAIN, USUBJID, and IDVAR/IDVARVAL variables. An exception is SUPP-- dataset records that are related to Demographics (DM) records, where both IDVAR and IDVARVAL will be null because the key variables STUDYID, RDOMAIN, and USUBJID are sufficient to identify the unique parent record in DM (DM has one record per USUBJID).",No Change,,,,,,,,,,,,
CG0204,3.2,1,SPC,SUPP--,IDVARVAL,IDVAR ^= null,IDVARVAL ^= null,IG v3.2,8.4.1,,"A record in a SUPP-- dataset relates back to its parent record(s) via the key identified by the STUDYID, RDOMAIN,and IDVAR/IDVARVAL variables. An exception is SUPP-- dataset records that are related to Demographics (DM) records, such as the Intent To Treat (ITT) and Safety (SAFETY) subject-level population flags, where both IDVAR and IDVARVAL will be null because the key variables STUDYID, RDOMAIN, and USUBJID are sufficient to identify the unique parent record in DM (DM has one record per USUBJID).",,,,,,,,,,,,,
CG0204,3.3,1,SPC,SUPP--,IDVARVAL,IDVAR ^= null,IDVARVAL ^= null,IG v3.3,8.4.1,,"A record in a SUPP-- dataset relates back to its parent record(s) via the key identified by the STUDYID, RDOMAIN,and IDVAR/IDVARVAL variables. An exception is SUPP-- dataset records that are related to Demographics (DM) records, such as the Intent To Treat (ITT) and Safety (SAFETY) subject-level population flags, where both IDVAR and IDVARVAL will be null because the key variables STUDYID, RDOMAIN, and USUBJID are sufficient to identify the unique parent record in DM (DM has one record per USUBJID).",,,,,,,,,,,,,
CG0204,3.4,1,SPC,SUPP--,IDVARVAL,IDVAR ^= null,IDVARVAL ^= null,IG v3.4,8.4.1,,"A record in a SUPP-- dataset relates back to its parent record(s) via the key identified by the STUDYID, RDOMAIN, USUBJID, and IDVAR/IDVARVAL variables. An exception is SUPP-- dataset records that are related to Demographics (DM) records, where both IDVAR and IDVARVAL will be null because the key variables STUDYID, RDOMAIN, and USUBJID are sufficient to identify the unique parent record in DM (DM has one record per USUBJID).",No Change,,,,,,,,,,,,
CG0205,3.2,1,SPC,SUPP--,GEN,,Suppqual dataset names <= 8 characters,IG v3.2,8.4.2,,"When data have been split into multiple datasets (see Section 4: 4.1.1.7, Splitting Domains), longer names such as SUPPFAMH may be needed. In cases where data about Associated Persons (see Associated Persons Implementation Guide) have been collected, an associated person with Supplemental Qualifiers for Findings About their medical history, the resulting dataset name SUPPAPFAMH) would be too long so that, in this case only, the ""SUPP"" portion should be shortened to ""SQ"". resulting in a dataset name of SQAPFAMH.",,,,,,,,,,,,,
CG0205,3.3,1,SPC,SUPP--,GEN,,Suppqual dataset names <= 8 characters,IG v3.3,8.4.2,,"When data have been split into multiple datasets (see Section 4: 4.1.1.7, Splitting Domains), longer names such as SUPPFAMH may be needed. In cases where data about Associated Persons (see Associated Persons Implementation Guide) have been collected, an associated person with Supplemental Qualifiers for Findings About their medical history, the resulting dataset name SUPPAPFAMH) would be too long so that, in this case only, the ""SUPP"" portion should be shortened to ""SQ"". resulting in a dataset name of SQAPFAMH.",,,,,,,,,,,,,
CG0205,3.4,1,SPC,SUPP--,GEN,,Suppqual dataset names <= 8 characters,IG v3.4,8.4.2,,"When data have been split into multiple datasets (see Section 4.1.7, Splitting Domains), longer names such as SUPPFAMH may be needed. In cases where data about Associated Persons (see Associated Persons Implementation Guide) have been collected, Supplemental Qualifiers for Findings About events or interventions for an associated person may need to be represented. A dataset name with the SUPP fragment, e.g., SUPPAPFAMH, would be too long. In this case only, the “SUPP” portion should be shortened to “SQ”, resulting in a dataset name such as SQAPFAMH.",No Change except section number update for Splitting Domains,,,,,,,,,,,,
CG0206,3.2,1,SPC,SE,TAETORD,ETCD = 'UNPLAN',TAETORD = null,IG v3.2,5 SE,Assumption 8,"TAETORD will not be populated for subject Elements that are not planned for the Arm to which the subject was assigned. Thus, TAETORD will not be populated for any Element with an ETCD value of ""UNPLAN"". TAETORD will also not be populated if a subject passed through an Element that, although defined in the TE dataset, was out of place for the Arm to which the subject was assigned. For example, if a subject in a parallel study of Drug A vs. Drug B was assigned to receive Drug A, but received Drug B instead, then TAETORD would be left blank for the SE record for their Drug B Element. If a subject was assigned to receive the sequence of Elements A, B, C, D, and instead received A, D, B, C, then the sponsor would have to decide for which of these subject Element records TAETORD should be populated. The rationale for this decision should be documented in the Comments column of the define.xml.",,,,,,,,,,,,,
CG0206,3.3,1,SPC,SE,TAETORD,ETCD = 'UNPLAN',TAETORD = null,IG v3.3,5.3,Assumption 6,"TAETORD will not be populated for subject Elements that are not planned for the Arm to which the subject was assigned. Thus, TAETORD will not be populated for any Element with an ETCD value of ""UNPLAN"". TAETORD will also not be populated if a subject passed through an Element that, although defined in the TE dataset, was out of place for the Arm to which the subject was assigned. For example, if a subject in a parallel study of Drug A vs. Drug B was assigned to receive Drug A, but received Drug B instead, then TAETORD would be left blank for the SE record for their Drug B Element. If a subject was assigned to receive the sequence of Elements A, B, C, D, and instead received A, D, B, C, then the sponsor would have to decide for which of these subject Element records TAETORD should be populated. The rationale for this decision should be documented in the Comments column of the define.xml.",,,,,,,,,,,,,
CG0206,3.4,1,SPC,SE,TAETORD,ETCD = 'UNPLAN',TAETORD = null,IG v3.4,5.3,Assumption 6,"TAETORD will not be populated for subject Elements that are not planned for the Arm to which the subject was assigned. Thus, TAETORD will not be populated for any Element with an ETCD value of “UNPLAN”.",Shortened cited guidance to the applicable sentence.,,,,,,,,,,,,
CG0207,3.2,1,SPC,SE,SEENDTC,Next ELEMENT present in dataset,SEENDTC = SESTDTC of next ELEMENT,IG v3.2,5 SE,Assumption 10,"Since there are, by definition, no gaps between Elements, the value of SEENDTC for one Element will always be the same as the value of SESTDTC for the next Element",,,,,,,,,,,,,
CG0207,3.3,1,SPC,SE,SEENDTC,Next ELEMENT present in dataset,SEENDTC = SESTDTC of next ELEMENT,IG v3.3,5.3,Assumption 8,"Since there are, by definition, no gaps between Elements, the value of SEENDTC for one Element will always be the same as the value of SESTDTC for the next Element",,,,,,,,,,,,,
CG0207,3.4,1,SPC,SE,SEENDTC,Next ELEMENT present in dataset,SEENDTC = SESTDTC of next ELEMENT,IG v3.4,5.3,Assumption 8,"Since there are, by definition, no gaps between Elements, the value of SEENDTC for one Element will always be the same as the value of SESTDTC for the next Element.",No Change,,,,,,,,,,,,
CG0208,3.2,3,SPC,SE,SESTDTC,,SESTDTC ^= null,IG v3.2,5 SE,Assumption 11,"Note that SESTDTC is required, although --STDTC is not required in any other subject-level dataset. The purpose of the dataset is to record the Elements a subject actually passed through. We assume that if it is known that a subject passed through a particular Element, then there must be some information on when it started, even if that information is imprecise. Thus, SESTDTC may not be null, although some records may not have all the components (e.g., year, month, day, hour, minute) of the date/time value collected.","Condition removed, previously was ""ETCD ^= null"".  ETCD is the topic variable and Required, and therefore cannot be null.",,,,,,,,,,,,
CG0208,3.3,3,SPC,SE,SESTDTC,,SESTDTC ^= null,IG v3.3,5.3,Assumption 9,"Note that SESTDTC is required, although --STDTC is not required in any other subject-level dataset. The purpose of the dataset is to record the Elements a subject actually passed through. We assume that if it is known that a subject passed through a particular Element, then there must be some information on when it started, even if that information is imprecise. Thus, SESTDTC may not be null, although some records may not have all the components (e.g., year, month, day, hour, minute) of the date/time value collected.","Condition removed, previously was ""ETCD ^= null"".  ETCD is the topic variable and Required, and therefore cannot be null.",,,,,,,,,,,,
CG0208,3.4,3,SPC,SE,SESTDTC,,SESTDTC ^= null,IG v3.4,5.3,Assumption 9,"Note that SESTDTC is required, although --STDTC is not required in any other subject-level dataset. The purpose of the dataset is to record the Elements a subject actually passed through. We assume that if it is known that a subject passed through a particular Element, then there must be some information on when it started, even if that information is imprecise. Thus, SESTDTC may not be null, although some records may not have all the components (e.g., year, month, day, hour, minute) of the date/time value collected.","Condition removed, previously was ""ETCD ^= null"".  ETCD is the topic variable and Required, and therefore cannot be null.",,,,,,,,,,,,
CG0209,3.2,2,SPC,SE,SEENDTC,Not last record,SEENDTC ^= null,IG v3.2,5 SE,Assumption 10|Assumption 11,"Assumption 10[Since there are, by definition, no gaps between Elements, the value of SEENDTC for one Element will always be the same as the value of SESTDTC for the next Element.]|Assumption 11[Note that SESTDTC is required, although --STDTC is not required in any other subject-level dataset. The purpose of the dataset is to record the Elements a subject actually passed through. We assume that if it is known that a subject passed through a particular Element, then there must be some information on when it started, even if that information is imprecise. Thus, SESTDTC may not be null, although some records may not have all the components (e.g., year, month, day, hour, minute) of the date/time value collected.]","Condition updated from ""ETCD ^= null and not last record"".",,,,,,,,,,,,
