STUDYID,DOMAIN,USUBJID,DSSEQ,DSCAT,DSTERM,DSDECOD,EPOCH,DSSTDTC,DSSTDY
D6470C00005,DS,D6470C00005-0001,1,DISPOSITION EVENT,Completed,COMPLETED,FOLLOW-UP,2021-02-19,62
D6470C00005,DS,D6470C00005-0002,1,DISPOSITION EVENT,Completed,COMPLETED,FOLLOW-UP,2021-03-07,62
D6470C00005,DS,D6470C00005-0003,1,DISPOSITION EVENT,Completed,COMPLETED,FOLLOW-UP,2021-02-24,62
D6470C00005,DS,D6470C00005-0004,1,DISPOSITION EVENT,Completed,COMPLETED,FOLLOW-UP,2021-02-17,62
D6470C00005,DS,D6470C00005-0005,1,DISPOSITION EVENT,Completed,COMPLETED,FOLLOW-UP,2021-04-30,62
D6470C00005,DS,D6470C00005-0006,1,DISPOSITION EVENT,Completed,COMPLETED,FOLLOW-UP,2021-06-01,62
D6470C00005,DS,D6470C00005-0007,1,DISPOSITION EVENT,Completed,COMPLETED,FOLLOW-UP,2021-05-03,62
D6470C00005,DS,D6470C00005-0008,1,DISPOSITION EVENT,Adverse event,ADVERSE EVENT,TREATMENT,2021-01-15,23
D6470C00005,DS,D6470C00005-0009,1,DISPOSITION EVENT,Completed,COMPLETED,FOLLOW-UP,2021-04-01,62
D6470C00005,DS,D6470C00005-0010,1,DISPOSITION EVENT,Completed,COMPLETED,FOLLOW-UP,2021-05-18,62
D6470C00005,DS,D6470C00005-0011,1,DISPOSITION EVENT,Completed,COMPLETED,FOLLOW-UP,2021-04-06,62
D6470C00005,DS,D6470C00005-0012,1,DISPOSITION EVENT,Completed,COMPLETED,FOLLOW-UP,2021-03-16,62
D6470C00005,DS,D6470C00005-0013,1,DISPOSITION EVENT,Completed,COMPLETED,FOLLOW-UP,2021-05-25,62
D6470C00005,DS,D6470C00005-0014,1,DISPOSITION EVENT,Completed,COMPLETED,FOLLOW-UP,2021-04-22,62
D6470C00005,DS,D6470C00005-0015,1,DISPOSITION EVENT,Completed,COMPLETED,FOLLOW-UP,2021-02-18,62
D6470C00005,DS,D6470C00005-0016,1,DISPOSITION EVENT,Completed,COMPLETED,FOLLOW-UP,2021-05-19,62
D6470C00005,DS,D6470C00005-0017,1,DISPOSITION EVENT,Completed,COMPLETED,FOLLOW-UP,2021-03-02,62
D6470C00005,DS,D6470C00005-0018,1,DISPOSITION EVENT,Completed,COMPLETED,FOLLOW-UP,2021-06-05,62
D6470C00005,DS,D6470C00005-0019,1,DISPOSITION EVENT,Completed,COMPLETED,FOLLOW-UP,2021-04-13,62
D6470C00005,DS,D6470C00005-0020,1,DISPOSITION EVENT,Completed,COMPLETED,FOLLOW-UP,2021-05-27,62
D6470C00005,DS,D6470C00005-0021,1,DISPOSITION EVENT,Completed,COMPLETED,FOLLOW-UP,2021-04-27,62
D6470C00005,DS,D6470C00005-0022,1,DISPOSITION EVENT,Completed,COMPLETED,FOLLOW-UP,2021-05-24,62
D6470C00005,DS,D6470C00005-0023,1,DISPOSITION EVENT,Adverse event,ADVERSE EVENT,TREATMENT,2021-04-01,6
D6470C00005,DS,D6470C00005-0024,1,DISPOSITION EVENT,Completed,COMPLETED,FOLLOW-UP,2021-04-13,62
D6470C00005,DS,D6470C00005-0025,1,DISPOSITION EVENT,Completed,COMPLETED,FOLLOW-UP,2021-02-13,62
D6470C00005,DS,D6470C00005-0026,1,DISPOSITION EVENT,Completed,COMPLETED,FOLLOW-UP,2021-04-10,62
D6470C00005,DS,D6470C00005-0027,1,DISPOSITION EVENT,Completed,COMPLETED,FOLLOW-UP,2021-03-17,62
D6470C00005,DS,D6470C00005-0028,1,DISPOSITION EVENT,Completed,COMPLETED,FOLLOW-UP,2021-05-21,62
D6470C00005,DS,D6470C00005-0029,1,DISPOSITION EVENT,Completed,COMPLETED,FOLLOW-UP,2021-05-20,62
D6470C00005,DS,D6470C00005-0030,1,DISPOSITION EVENT,Completed,COMPLETED,FOLLOW-UP,2021-03-19,62
D6470C00005,DS,D6470C00005-0031,1,DISPOSITION EVENT,Completed,COMPLETED,FOLLOW-UP,2021-02-18,62
D6470C00005,DS,D6470C00005-0032,1,DISPOSITION EVENT,Completed,COMPLETED,FOLLOW-UP,2021-02-19,62
D6470C00005,DS,D6470C00005-0033,1,DISPOSITION EVENT,Completed,COMPLETED,FOLLOW-UP,2021-02-09,62
D6470C00005,DS,D6470C00005-0034,1,DISPOSITION EVENT,Completed,COMPLETED,FOLLOW-UP,2021-06-05,62
D6470C00005,DS,D6470C00005-0035,1,DISPOSITION EVENT,Completed,COMPLETED,FOLLOW-UP,2021-03-25,62
D6470C00005,DS,D6470C00005-0036,1,DISPOSITION EVENT,Completed,COMPLETED,FOLLOW-UP,2021-02-28,62
D6470C00005,DS,D6470C00005-0037,1,DISPOSITION EVENT,Completed,COMPLETED,FOLLOW-UP,2021-02-27,62
D6470C00005,DS,D6470C00005-0038,1,DISPOSITION EVENT,Completed,COMPLETED,FOLLOW-UP,2021-05-27,62
D6470C00005,DS,D6470C00005-0039,1,DISPOSITION EVENT,Completed,COMPLETED,FOLLOW-UP,2021-02-12,62
D6470C00005,DS,D6470C00005-0040,1,DISPOSITION EVENT,Completed,COMPLETED,FOLLOW-UP,2021-03-18,62
