STUDYID,DOMAIN,USUBJID,EXSEQ,EXTRT,EXDOSE,EXDOSU,EXROUTE,VISITNUM,VISIT,EPOCH,EXSTDTC,EXENDTC,EXSTDY,EXENDY
D6470C00005,EX,D6470C00005-0001,1,PREDNISOLONE,40,mg,ORAL,3,DAY 1 (TP1),TREATMENT,2020-12-20,2020-12-22,1,3
D6470C00005,EX,D6470C00005-0001,2,AZD9567,72,mg,ORAL,5,DAY 26 (TP2),TREATMENT,2021-01-14,2021-01-16,26,28
D6470C00005,EX,D6470C00005-0002,1,PREDNISOLONE,40,mg,ORAL,3,DAY 1 (TP1),TREATMENT,2021-01-05,2021-01-07,1,3
D6470C00005,EX,D6470C00005-0002,2,AZD9567,72,mg,ORAL,5,DAY 26 (TP2),TREATMENT,2021-01-30,2021-02-01,26,28
D6470C00005,EX,D6470C00005-0003,1,PREDNISOLONE,40,mg,ORAL,3,DAY 1 (TP1),TREATMENT,2020-12-25,2020-12-27,1,3
D6470C00005,EX,D6470C00005-0003,2,AZD9567,72,mg,ORAL,5,DAY 26 (TP2),TREATMENT,2021-01-19,2021-01-21,26,28
D6470C00005,EX,D6470C00005-0004,1,AZD9567,72,mg,ORAL,3,DAY 1 (TP1),TREATMENT,2020-12-18,2020-12-20,1,3
D6470C00005,EX,D6470C00005-0004,2,PREDNISOLONE,40,mg,ORAL,5,DAY 26 (TP2),TREATMENT,2021-01-12,2021-01-14,26,28
D6470C00005,EX,D6470C00005-0005,1,AZD9567,72,mg,ORAL,3,DAY 1 (TP1),TREATMENT,2021-02-28,2021-03-02,1,3
D6470C00005,EX,D6470C00005-0005,2,PREDNISOLONE,40,mg,ORAL,5,DAY 26 (TP2),TREATMENT,2021-03-25,2021-03-27,26,28
D6470C00005,EX,D6470C00005-0006,1,PREDNISOLONE,40,mg,ORAL,3,DAY 1 (TP1),TREATMENT,2021-04-01,2021-04-03,1,3
D6470C00005,EX,D6470C00005-0006,2,AZD9567,72,mg,ORAL,5,DAY 26 (TP2),TREATMENT,2021-04-26,2021-04-28,26,28
D6470C00005,EX,D6470C00005-0007,1,PREDNISOLONE,40,mg,ORAL,3,DAY 1 (TP1),TREATMENT,2021-03-03,2021-03-05,1,3
D6470C00005,EX,D6470C00005-0007,2,AZD9567,72,mg,ORAL,5,DAY 26 (TP2),TREATMENT,2021-03-28,2021-03-30,26,28
D6470C00005,EX,D6470C00005-0008,1,AZD9567,72,mg,ORAL,3,DAY 1 (TP1),TREATMENT,2020-12-24,2020-12-26,1,3
D6470C00005,EX,D6470C00005-0008,2,PREDNISOLONE,40,mg,ORAL,5,DAY 26 (TP2),TREATMENT,2021-01-18,2021-01-20,26,28
D6470C00005,EX,D6470C00005-0009,1,AZD9567,72,mg,ORAL,3,DAY 1 (TP1),TREATMENT,2021-01-30,2021-02-01,1,3
D6470C00005,EX,D6470C00005-0009,2,PREDNISOLONE,40,mg,ORAL,5,DAY 26 (TP2),TREATMENT,2021-02-24,2021-02-26,26,28
D6470C00005,EX,D6470C00005-0010,1,AZD9567,72,mg,ORAL,3,DAY 1 (TP1),TREATMENT,2021-03-18,2021-03-20,1,3
D6470C00005,EX,D6470C00005-0010,2,PREDNISOLONE,40,mg,ORAL,5,DAY 26 (TP2),TREATMENT,2021-04-12,2021-04-14,26,28
D6470C00005,EX,D6470C00005-0011,1,PREDNISOLONE,40,mg,ORAL,3,DAY 1 (TP1),TREATMENT,2021-02-04,2021-02-06,1,3
D6470C00005,EX,D6470C00005-0011,2,AZD9567,72,mg,ORAL,5,DAY 26 (TP2),TREATMENT,2021-03-01,2021-03-03,26,28
D6470C00005,EX,D6470C00005-0012,1,PREDNISOLONE,40,mg,ORAL,3,DAY 1 (TP1),TREATMENT,2021-01-14,2021-01-16,1,3
D6470C00005,EX,D6470C00005-0012,2,AZD9567,72,mg,ORAL,5,DAY 26 (TP2),TREATMENT,2021-02-08,2021-02-10,26,28
D6470C00005,EX,D6470C00005-0013,1,AZD9567,72,mg,ORAL,3,DAY 1 (TP1),TREATMENT,2021-03-25,2021-03-27,1,3
D6470C00005,EX,D6470C00005-0013,2,PREDNISOLONE,40,mg,ORAL,5,DAY 26 (TP2),TREATMENT,2021-04-19,2021-04-21,26,28
D6470C00005,EX,D6470C00005-0014,1,AZD9567,72,mg,ORAL,3,DAY 1 (TP1),TREATMENT,2021-02-20,2021-02-22,1,3
D6470C00005,EX,D6470C00005-0014,2,PREDNISOLONE,40,mg,ORAL,5,DAY 26 (TP2),TREATMENT,2021-03-17,2021-03-19,26,28
D6470C00005,EX,D6470C00005-0015,1,AZD9567,72,mg,ORAL,3,DAY 1 (TP1),TREATMENT,2020-12-19,2020-12-21,1,3
D6470C00005,EX,D6470C00005-0015,2,PREDNISOLONE,40,mg,ORAL,5,DAY 26 (TP2),TREATMENT,2021-01-13,2021-01-15,26,28
D6470C00005,EX,D6470C00005-0016,1,AZD9567,72,mg,ORAL,3,DAY 1 (TP1),TREATMENT,2021-03-19,2021-03-21,1,3
D6470C00005,EX,D6470C00005-0016,2,PREDNISOLONE,40,mg,ORAL,5,DAY 26 (TP2),TREATMENT,2021-04-13,2021-04-15,26,28
D6470C00005,EX,D6470C00005-0017,1,PREDNISOLONE,40,mg,ORAL,3,DAY 1 (TP1),TREATMENT,2020-12-31,2021-01-02,1,3
D6470C00005,EX,D6470C00005-0017,2,AZD9567,72,mg,ORAL,5,DAY 26 (TP2),TREATMENT,2021-01-25,2021-01-27,26,28
D6470C00005,EX,D6470C00005-0018,1,PREDNISOLONE,40,mg,ORAL,3,DAY 1 (TP1),TREATMENT,2021-04-05,2021-04-07,1,3
D6470C00005,EX,D6470C00005-0018,2,AZD9567,72,mg,ORAL,5,DAY 26 (TP2),TREATMENT,2021-04-30,2021-05-02,26,28
D6470C00005,EX,D6470C00005-0019,1,AZD9567,72,mg,ORAL,3,DAY 1 (TP1),TREATMENT,2021-02-11,2021-02-13,1,3
D6470C00005,EX,D6470C00005-0019,2,PREDNISOLONE,40,mg,ORAL,5,DAY 26 (TP2),TREATMENT,2021-03-08,2021-03-10,26,28
D6470C00005,EX,D6470C00005-0020,1,AZD9567,72,mg,ORAL,3,DAY 1 (TP1),TREATMENT,2021-03-27,2021-03-29,1,3
D6470C00005,EX,D6470C00005-0020,2,PREDNISOLONE,40,mg,ORAL,5,DAY 26 (TP2),TREATMENT,2021-04-21,2021-04-23,26,28
D6470C00005,EX,D6470C00005-0021,1,AZD9567,72,mg,ORAL,3,DAY 1 (TP1),TREATMENT,2021-02-25,2021-02-27,1,3
D6470C00005,EX,D6470C00005-0021,2,PREDNISOLONE,40,mg,ORAL,5,DAY 26 (TP2),TREATMENT,2021-03-22,2021-03-24,26,28
D6470C00005,EX,D6470C00005-0022,1,AZD9567,72,mg,ORAL,3,DAY 1 (TP1),TREATMENT,2021-03-24,2021-03-26,1,3
D6470C00005,EX,D6470C00005-0022,2,PREDNISOLONE,40,mg,ORAL,5,DAY 26 (TP2),TREATMENT,2021-04-18,2021-04-20,26,28
D6470C00005,EX,D6470C00005-0023,1,AZD9567,72,mg,ORAL,3,DAY 1 (TP1),TREATMENT,2021-03-27,2021-03-29,1,3
D6470C00005,EX,D6470C00005-0023,2,PREDNISOLONE,40,mg,ORAL,5,DAY 26 (TP2),TREATMENT,2021-04-21,2021-04-23,26,28
D6470C00005,EX,D6470C00005-0024,1,PREDNISOLONE,40,mg,ORAL,3,DAY 1 (TP1),TREATMENT,2021-02-11,2021-02-13,1,3
D6470C00005,EX,D6470C00005-0024,2,AZD9567,72,mg,ORAL,5,DAY 26 (TP2),TREATMENT,2021-03-08,2021-03-10,26,28
D6470C00005,EX,D6470C00005-0025,1,PREDNISOLONE,20,mg,ORAL,3,DAY 1 (TP1),TREATMENT,2020-12-14,2020-12-16,1,3
D6470C00005,EX,D6470C00005-0025,2,AZD9567,40,mg,ORAL,5,DAY 26 (TP2),TREATMENT,2021-01-08,2021-01-10,26,28
D6470C00005,EX,D6470C00005-0026,1,AZD9567,40,mg,ORAL,3,DAY 1 (TP1),TREATMENT,2021-02-08,2021-02-10,1,3
D6470C00005,EX,D6470C00005-0026,2,PREDNISOLONE,20,mg,ORAL,5,DAY 26 (TP2),TREATMENT,2021-03-05,2021-03-07,26,28
D6470C00005,EX,D6470C00005-0027,1,AZD9567,40,mg,ORAL,3,DAY 1 (TP1),TREATMENT,2021-01-15,2021-01-17,1,3
D6470C00005,EX,D6470C00005-0027,2,PREDNISOLONE,20,mg,ORAL,5,DAY 26 (TP2),TREATMENT,2021-02-09,2021-02-11,26,28
D6470C00005,EX,D6470C00005-0028,1,PREDNISOLONE,20,mg,ORAL,3,DAY 1 (TP1),TREATMENT,2021-03-21,2021-03-23,1,3
D6470C00005,EX,D6470C00005-0028,2,AZD9567,40,mg,ORAL,5,DAY 26 (TP2),TREATMENT,2021-04-15,2021-04-17,26,28
D6470C00005,EX,D6470C00005-0029,1,PREDNISOLONE,20,mg,ORAL,3,DAY 1 (TP1),TREATMENT,2021-03-20,2021-03-22,1,3
D6470C00005,EX,D6470C00005-0029,2,AZD9567,40,mg,ORAL,5,DAY 26 (TP2),TREATMENT,2021-04-14,2021-04-16,26,28
D6470C00005,EX,D6470C00005-0030,1,PREDNISOLONE,20,mg,ORAL,3,DAY 1 (TP1),TREATMENT,2021-01-17,2021-01-19,1,3
D6470C00005,EX,D6470C00005-0030,2,AZD9567,40,mg,ORAL,5,DAY 26 (TP2),TREATMENT,2021-02-11,2021-02-13,26,28
D6470C00005,EX,D6470C00005-0031,1,PREDNISOLONE,20,mg,ORAL,3,DAY 1 (TP1),TREATMENT,2020-12-19,2020-12-21,1,3
D6470C00005,EX,D6470C00005-0031,2,AZD9567,40,mg,ORAL,5,DAY 26 (TP2),TREATMENT,2021-01-13,2021-01-15,26,28
D6470C00005,EX,D6470C00005-0032,1,PREDNISOLONE,20,mg,ORAL,3,DAY 1 (TP1),TREATMENT,2020-12-20,2020-12-22,1,3
D6470C00005,EX,D6470C00005-0032,2,AZD9567,40,mg,ORAL,5,DAY 26 (TP2),TREATMENT,2021-01-14,2021-01-16,26,28
D6470C00005,EX,D6470C00005-0033,1,PREDNISOLONE,5,mg,ORAL,3,DAY 1 (TP1),TREATMENT,2020-12-10,2020-12-12,1,3
D6470C00005,EX,D6470C00005-0033,2,PLACEBO,0,mg,ORAL,5,DAY 26 (TP2),TREATMENT,2021-01-04,2021-01-06,26,28
D6470C00005,EX,D6470C00005-0034,1,PREDNISOLONE,5,mg,ORAL,3,DAY 1 (TP1),TREATMENT,2021-04-05,2021-04-07,1,3
D6470C00005,EX,D6470C00005-0034,2,PLACEBO,0,mg,ORAL,5,DAY 26 (TP2),TREATMENT,2021-04-30,2021-05-02,26,28
D6470C00005,EX,D6470C00005-0035,1,PLACEBO,0,mg,ORAL,3,DAY 1 (TP1),TREATMENT,2021-01-23,2021-01-25,1,3
D6470C00005,EX,D6470C00005-0035,2,PREDNISOLONE,5,mg,ORAL,5,DAY 26 (TP2),TREATMENT,2021-02-17,2021-02-19,26,28
D6470C00005,EX,D6470C00005-0036,1,PLACEBO,0,mg,ORAL,3,DAY 1 (TP1),TREATMENT,2020-12-29,2020-12-31,1,3
D6470C00005,EX,D6470C00005-0036,2,PREDNISOLONE,5,mg,ORAL,5,DAY 26 (TP2),TREATMENT,2021-01-23,2021-01-25,26,28
D6470C00005,EX,D6470C00005-0037,1,PLACEBO,0,mg,ORAL,3,DAY 1 (TP1),TREATMENT,2020-12-28,2020-12-30,1,3
D6470C00005,EX,D6470C00005-0037,2,PREDNISOLONE,5,mg,ORAL,5,DAY 26 (TP2),TREATMENT,2021-01-22,2021-01-24,26,28
D6470C00005,EX,D6470C00005-0038,1,PREDNISOLONE,5,mg,ORAL,3,DAY 1 (TP1),TREATMENT,2021-03-27,2021-03-29,1,3
D6470C00005,EX,D6470C00005-0038,2,PLACEBO,0,mg,ORAL,5,DAY 26 (TP2),TREATMENT,2021-04-21,2021-04-23,26,28
D6470C00005,EX,D6470C00005-0039,1,PREDNISOLONE,5,mg,ORAL,3,DAY 1 (TP1),TREATMENT,2020-12-13,2020-12-15,1,3
D6470C00005,EX,D6470C00005-0039,2,PLACEBO,0,mg,ORAL,5,DAY 26 (TP2),TREATMENT,2021-01-07,2021-01-09,26,28
D6470C00005,EX,D6470C00005-0040,1,PLACEBO,0,mg,ORAL,3,DAY 1 (TP1),TREATMENT,2021-01-16,2021-01-18,1,3
D6470C00005,EX,D6470C00005-0040,2,PREDNISOLONE,5,mg,ORAL,5,DAY 26 (TP2),TREATMENT,2021-02-10,2021-02-12,26,28
