STUDYID,DOMAIN,USUBJID,LBSEQ,LBTESTCD,LBTEST,LBCAT,LBSPEC,LBORRES,LBORRESU,LBSTRESC,LBSTRESN,LBSTRESU,LBORNRLO,LBORNRHI,LBFAST,VISITNUM,VISIT,EPOCH,LBDTC,LBDY
D6470C00005,LB,D6470C00005-0001,1,GLUC,Glucose,CHEMISTRY,SERUM,10.0,mmol/L,10.0,10.0,mmol/L,4.1,5.9,Y,1,SCREENING,SCREENING,2020-12-06,-14
D6470C00005,LB,D6470C00005-0001,2,INSULIN,Insulin,CHEMISTRY,SERUM,71.0,pmol/L,71.0,71.0,pmol/L,18,173,Y,1,SCREENING,SCREENING,2020-12-06,-14
D6470C00005,LB,D6470C00005-0001,3,CPEPTIDE,C-Peptide,CHEMISTRY,SERUM,1.45,nmol/L,1.45,1.45,nmol/L,0.37,1.47,Y,1,SCREENING,SCREENING,2020-12-06,-14
D6470C00005,LB,D6470C00005-0001,4,HBA1C,Hemoglobin A1C,CHEMISTRY,SERUM,8.6,%,8.6,8.6,%,4.0,6.0,Y,1,SCREENING,SCREENING,2020-12-06,-14
D6470C00005,LB,D6470C00005-0001,5,CHOL,Cholesterol,CHEMISTRY,SERUM,6.0,mmol/L,6.0,6.0,mmol/L,0,5.2,Y,1,SCREENING,SCREENING,2020-12-06,-14
D6470C00005,LB,D6470C00005-0001,6,TRIG,Triglycerides,CHEMISTRY,SERUM,2.79,mmol/L,2.79,2.79,mmol/L,0,1.7,Y,1,SCREENING,SCREENING,2020-12-06,-14
D6470C00005,LB,D6470C00005-0001,7,HDL,HDL Cholesterol,CHEMISTRY,SERUM,1.25,mmol/L,1.25,1.25,mmol/L,1.0,2.2,Y,1,SCREENING,SCREENING,2020-12-06,-14
D6470C00005,LB,D6470C00005-0001,8,SODIUM,Sodium,CHEMISTRY,SERUM,140.0,mmol/L,140.0,140.0,mmol/L,136,145,Y,1,SCREENING,SCREENING,2020-12-06,-14
D6470C00005,LB,D6470C00005-0001,9,K,Potassium,CHEMISTRY,SERUM,5.0,mmol/L,5.0,5.0,mmol/L,3.5,5.1,Y,1,SCREENING,SCREENING,2020-12-06,-14
D6470C00005,LB,D6470C00005-0001,10,CORTISOL,Cortisol,CHEMISTRY,SERUM,480.0,nmol/L,480.0,480.0,nmol/L,138,635,Y,1,SCREENING,SCREENING,2020-12-06,-14
D6470C00005,LB,D6470C00005-0001,11,HGB,Hemoglobin,HEMATOLOGY,SERUM,135.0,g/L,135.0,135.0,g/L,120,160,N,1,SCREENING,SCREENING,2020-12-06,-14
D6470C00005,LB,D6470C00005-0001,12,HCT,Hematocrit,HEMATOLOGY,SERUM,0.41,1,0.41,0.41,1,0.36,0.48,N,1,SCREENING,SCREENING,2020-12-06,-14
D6470C00005,LB,D6470C00005-0001,13,GLUC,Glucose,CHEMISTRY,SERUM,11.5,mmol/L,11.5,11.5,mmol/L,4.1,5.9,Y,3,DAY 4 (TP1),TREATMENT,2020-12-24,5
D6470C00005,LB,D6470C00005-0001,14,INSULIN,Insulin,CHEMISTRY,SERUM,57.0,pmol/L,57.0,57.0,pmol/L,18,173,Y,3,DAY 4 (TP1),TREATMENT,2020-12-24,5
D6470C00005,LB,D6470C00005-0001,15,CPEPTIDE,C-Peptide,CHEMISTRY,SERUM,1.33,nmol/L,1.33,1.33,nmol/L,0.37,1.47,Y,3,DAY 4 (TP1),TREATMENT,2020-12-24,5
D6470C00005,LB,D6470C00005-0001,16,HBA1C,Hemoglobin A1C,CHEMISTRY,SERUM,6.6,%,6.6,6.6,%,4.0,6.0,Y,3,DAY 4 (TP1),TREATMENT,2020-12-24,5
D6470C00005,LB,D6470C00005-0001,17,CHOL,Cholesterol,CHEMISTRY,SERUM,5.8,mmol/L,5.8,5.8,mmol/L,0,5.2,Y,3,DAY 4 (TP1),TREATMENT,2020-12-24,5
D6470C00005,LB,D6470C00005-0001,18,TRIG,Triglycerides,CHEMISTRY,SERUM,0.94,mmol/L,0.94,0.94,mmol/L,0,1.7,Y,3,DAY 4 (TP1),TREATMENT,2020-12-24,5
D6470C00005,LB,D6470C00005-0001,19,HDL,HDL Cholesterol,CHEMISTRY,SERUM,1.56,mmol/L,1.56,1.56,mmol/L,1.0,2.2,Y,3,DAY 4 (TP1),TREATMENT,2020-12-24,5
D6470C00005,LB,D6470C00005-0001,20,SODIUM,Sodium,CHEMISTRY,SERUM,139.0,mmol/L,139.0,139.0,mmol/L,136,145,Y,3,DAY 4 (TP1),TREATMENT,2020-12-24,5
D6470C00005,LB,D6470C00005-0001,21,K,Potassium,CHEMISTRY,SERUM,5.0,mmol/L,5.0,5.0,mmol/L,3.5,5.1,Y,3,DAY 4 (TP1),TREATMENT,2020-12-24,5
D6470C00005,LB,D6470C00005-0001,22,CORTISOL,Cortisol,CHEMISTRY,SERUM,388.0,nmol/L,388.0,388.0,nmol/L,138,635,Y,3,DAY 4 (TP1),TREATMENT,2020-12-24,5
D6470C00005,LB,D6470C00005-0001,23,HGB,Hemoglobin,HEMATOLOGY,SERUM,165.0,g/L,165.0,165.0,g/L,120,160,N,3,DAY 4 (TP1),TREATMENT,2020-12-24,5
D6470C00005,LB,D6470C00005-0001,24,HCT,Hematocrit,HEMATOLOGY,SERUM,0.45,1,0.45,0.45,1,0.36,0.48,N,3,DAY 4 (TP1),TREATMENT,2020-12-24,5
D6470C00005,LB,D6470C00005-0001,25,K,Potassium,URINALYSIS,URINE,63.0,mmol/L,63.0,63.0,mmol/L,,,N,3,DAY 4 (TP1),TREATMENT,2020-12-24,5
D6470C00005,LB,D6470C00005-0001,26,SODIUM,Sodium,URINALYSIS,URINE,180.0,mmol/L,180.0,180.0,mmol/L,,,N,3,DAY 4 (TP1),TREATMENT,2020-12-24,5
D6470C00005,LB,D6470C00005-0001,27,GLUC,Glucose,CHEMISTRY,SERUM,8.2,mmol/L,8.2,8.2,mmol/L,4.1,5.9,Y,5,DAY 31 (TP2),TREATMENT,2021-01-20,32
D6470C00005,LB,D6470C00005-0001,28,INSULIN,Insulin,CHEMISTRY,SERUM,95.0,pmol/L,95.0,95.0,pmol/L,18,173,Y,5,DAY 31 (TP2),TREATMENT,2021-01-20,32
D6470C00005,LB,D6470C00005-0001,29,CPEPTIDE,C-Peptide,CHEMISTRY,SERUM,0.69,nmol/L,0.69,0.69,nmol/L,0.37,1.47,Y,5,DAY 31 (TP2),TREATMENT,2021-01-20,32
D6470C00005,LB,D6470C00005-0001,30,HBA1C,Hemoglobin A1C,CHEMISTRY,SERUM,7.5,%,7.5,7.5,%,4.0,6.0,Y,5,DAY 31 (TP2),TREATMENT,2021-01-20,32
D6470C00005,LB,D6470C00005-0001,31,CHOL,Cholesterol,CHEMISTRY,SERUM,3.5,mmol/L,3.5,3.5,mmol/L,0,5.2,Y,5,DAY 31 (TP2),TREATMENT,2021-01-20,32
D6470C00005,LB,D6470C00005-0001,32,TRIG,Triglycerides,CHEMISTRY,SERUM,1.64,mmol/L,1.64,1.64,mmol/L,0,1.7,Y,5,DAY 31 (TP2),TREATMENT,2021-01-20,32
D6470C00005,LB,D6470C00005-0001,33,HDL,HDL Cholesterol,CHEMISTRY,SERUM,1.71,mmol/L,1.71,1.71,mmol/L,1.0,2.2,Y,5,DAY 31 (TP2),TREATMENT,2021-01-20,32
D6470C00005,LB,D6470C00005-0001,34,SODIUM,Sodium,CHEMISTRY,SERUM,142.0,mmol/L,142.0,142.0,mmol/L,136,145,Y,5,DAY 31 (TP2),TREATMENT,2021-01-20,32
D6470C00005,LB,D6470C00005-0001,35,K,Potassium,CHEMISTRY,SERUM,5.0,mmol/L,5.0,5.0,mmol/L,3.5,5.1,Y,5,DAY 31 (TP2),TREATMENT,2021-01-20,32
D6470C00005,LB,D6470C00005-0001,36,CORTISOL,Cortisol,CHEMISTRY,SERUM,488.0,nmol/L,488.0,488.0,nmol/L,138,635,Y,5,DAY 31 (TP2),TREATMENT,2021-01-20,32
D6470C00005,LB,D6470C00005-0001,37,HGB,Hemoglobin,HEMATOLOGY,SERUM,162.0,g/L,162.0,162.0,g/L,120,160,N,5,DAY 31 (TP2),TREATMENT,2021-01-20,32
D6470C00005,LB,D6470C00005-0001,38,HCT,Hematocrit,HEMATOLOGY,SERUM,0.44,1,0.44,0.44,1,0.36,0.48,N,5,DAY 31 (TP2),TREATMENT,2021-01-20,32
D6470C00005,LB,D6470C00005-0001,39,K,Potassium,URINALYSIS,URINE,43.0,mmol/L,43.0,43.0,mmol/L,,,N,5,DAY 31 (TP2),TREATMENT,2021-01-20,32
D6470C00005,LB,D6470C00005-0001,40,SODIUM,Sodium,URINALYSIS,URINE,56.0,mmol/L,56.0,56.0,mmol/L,,,N,5,DAY 31 (TP2),TREATMENT,2021-01-20,32
D6470C00005,LB,D6470C00005-0001,41,GLUC,Glucose,CHEMISTRY,SERUM,7.6,mmol/L,7.6,7.6,mmol/L,4.1,5.9,Y,6,FOLLOW-UP,FOLLOW-UP,2021-02-19,62
D6470C00005,LB,D6470C00005-0001,42,INSULIN,Insulin,CHEMISTRY,SERUM,122.0,pmol/L,122.0,122.0,pmol/L,18,173,Y,6,FOLLOW-UP,FOLLOW-UP,2021-02-19,62
D6470C00005,LB,D6470C00005-0001,43,CPEPTIDE,C-Peptide,CHEMISTRY,SERUM,1.37,nmol/L,1.37,1.37,nmol/L,0.37,1.47,Y,6,FOLLOW-UP,FOLLOW-UP,2021-02-19,62
D6470C00005,LB,D6470C00005-0001,44,HBA1C,Hemoglobin A1C,CHEMISTRY,SERUM,8.6,%,8.6,8.6,%,4.0,6.0,Y,6,FOLLOW-UP,FOLLOW-UP,2021-02-19,62
D6470C00005,LB,D6470C00005-0001,45,CHOL,Cholesterol,CHEMISTRY,SERUM,6.6,mmol/L,6.6,6.6,mmol/L,0,5.2,Y,6,FOLLOW-UP,FOLLOW-UP,2021-02-19,62
D6470C00005,LB,D6470C00005-0001,46,TRIG,Triglycerides,CHEMISTRY,SERUM,2.33,mmol/L,2.33,2.33,mmol/L,0,1.7,Y,6,FOLLOW-UP,FOLLOW-UP,2021-02-19,62
D6470C00005,LB,D6470C00005-0001,47,HDL,HDL Cholesterol,CHEMISTRY,SERUM,1.49,mmol/L,1.49,1.49,mmol/L,1.0,2.2,Y,6,FOLLOW-UP,FOLLOW-UP,2021-02-19,62
D6470C00005,LB,D6470C00005-0001,48,SODIUM,Sodium,CHEMISTRY,SERUM,135.0,mmol/L,135.0,135.0,mmol/L,136,145,Y,6,FOLLOW-UP,FOLLOW-UP,2021-02-19,62
D6470C00005,LB,D6470C00005-0001,49,K,Potassium,CHEMISTRY,SERUM,4.3,mmol/L,4.3,4.3,mmol/L,3.5,5.1,Y,6,FOLLOW-UP,FOLLOW-UP,2021-02-19,62
D6470C00005,LB,D6470C00005-0001,50,CORTISOL,Cortisol,CHEMISTRY,SERUM,427.0,nmol/L,427.0,427.0,nmol/L,138,635,Y,6,FOLLOW-UP,FOLLOW-UP,2021-02-19,62
D6470C00005,LB,D6470C00005-0001,51,HGB,Hemoglobin,HEMATOLOGY,SERUM,142.0,g/L,142.0,142.0,g/L,120,160,N,6,FOLLOW-UP,FOLLOW-UP,2021-02-19,62
D6470C00005,LB,D6470C00005-0001,52,HCT,Hematocrit,HEMATOLOGY,SERUM,0.4,1,0.4,0.4,1,0.36,0.48,N,6,FOLLOW-UP,FOLLOW-UP,2021-02-19,62
D6470C00005,LB,D6470C00005-0002,1,GLUC,Glucose,CHEMISTRY,SERUM,7.0,mmol/L,7.0,7.0,mmol/L,4.1,5.9,Y,1,SCREENING,SCREENING,2020-12-22,-14
D6470C00005,LB,D6470C00005-0002,2,INSULIN,Insulin,CHEMISTRY,SERUM,57.0,pmol/L,57.0,57.0,pmol/L,18,173,Y,1,SCREENING,SCREENING,2020-12-22,-14
D6470C00005,LB,D6470C00005-0002,3,CPEPTIDE,C-Peptide,CHEMISTRY,SERUM,1.41,nmol/L,1.41,1.41,nmol/L,0.37,1.47,Y,1,SCREENING,SCREENING,2020-12-22,-14
D6470C00005,LB,D6470C00005-0002,4,HBA1C,Hemoglobin A1C,CHEMISTRY,SERUM,7.1,%,7.1,7.1,%,4.0,6.0,Y,1,SCREENING,SCREENING,2020-12-22,-14
D6470C00005,LB,D6470C00005-0002,5,CHOL,Cholesterol,CHEMISTRY,SERUM,6.0,mmol/L,6.0,6.0,mmol/L,0,5.2,Y,1,SCREENING,SCREENING,2020-12-22,-14
D6470C00005,LB,D6470C00005-0002,6,TRIG,Triglycerides,CHEMISTRY,SERUM,2.21,mmol/L,2.21,2.21,mmol/L,0,1.7,Y,1,SCREENING,SCREENING,2020-12-22,-14
D6470C00005,LB,D6470C00005-0002,7,HDL,HDL Cholesterol,CHEMISTRY,SERUM,1.52,mmol/L,1.52,1.52,mmol/L,1.0,2.2,Y,1,SCREENING,SCREENING,2020-12-22,-14
D6470C00005,LB,D6470C00005-0002,8,SODIUM,Sodium,CHEMISTRY,SERUM,145.0,mmol/L,145.0,145.0,mmol/L,136,145,Y,1,SCREENING,SCREENING,2020-12-22,-14
D6470C00005,LB,D6470C00005-0002,9,K,Potassium,CHEMISTRY,SERUM,4.2,mmol/L,4.2,4.2,mmol/L,3.5,5.1,Y,1,SCREENING,SCREENING,2020-12-22,-14
D6470C00005,LB,D6470C00005-0002,10,CORTISOL,Cortisol,CHEMISTRY,SERUM,529.0,nmol/L,529.0,529.0,nmol/L,138,635,Y,1,SCREENING,SCREENING,2020-12-22,-14
D6470C00005,LB,D6470C00005-0002,11,HGB,Hemoglobin,HEMATOLOGY,SERUM,125.0,g/L,125.0,125.0,g/L,120,160,N,1,SCREENING,SCREENING,2020-12-22,-14
D6470C00005,LB,D6470C00005-0002,12,HCT,Hematocrit,HEMATOLOGY,SERUM,0.46,1,0.46,0.46,1,0.36,0.48,N,1,SCREENING,SCREENING,2020-12-22,-14
D6470C00005,LB,D6470C00005-0002,13,GLUC,Glucose,CHEMISTRY,SERUM,10.3,mmol/L,10.3,10.3,mmol/L,4.1,5.9,Y,3,DAY 4 (TP1),TREATMENT,2021-01-09,5
D6470C00005,LB,D6470C00005-0002,14,INSULIN,Insulin,CHEMISTRY,SERUM,77.0,pmol/L,77.0,77.0,pmol/L,18,173,Y,3,DAY 4 (TP1),TREATMENT,2021-01-09,5
D6470C00005,LB,D6470C00005-0002,15,CPEPTIDE,C-Peptide,CHEMISTRY,SERUM,1.17,nmol/L,1.17,1.17,nmol/L,0.37,1.47,Y,3,DAY 4 (TP1),TREATMENT,2021-01-09,5
D6470C00005,LB,D6470C00005-0002,16,HBA1C,Hemoglobin A1C,CHEMISTRY,SERUM,7.9,%,7.9,7.9,%,4.0,6.0,Y,3,DAY 4 (TP1),TREATMENT,2021-01-09,5
D6470C00005,LB,D6470C00005-0002,17,CHOL,Cholesterol,CHEMISTRY,SERUM,5.5,mmol/L,5.5,5.5,mmol/L,0,5.2,Y,3,DAY 4 (TP1),TREATMENT,2021-01-09,5
D6470C00005,LB,D6470C00005-0002,18,TRIG,Triglycerides,CHEMISTRY,SERUM,3.08,mmol/L,3.08,3.08,mmol/L,0,1.7,Y,3,DAY 4 (TP1),TREATMENT,2021-01-09,5
D6470C00005,LB,D6470C00005-0002,19,HDL,HDL Cholesterol,CHEMISTRY,SERUM,1.44,mmol/L,1.44,1.44,mmol/L,1.0,2.2,Y,3,DAY 4 (TP1),TREATMENT,2021-01-09,5
D6470C00005,LB,D6470C00005-0002,20,SODIUM,Sodium,CHEMISTRY,SERUM,135.0,mmol/L,135.0,135.0,mmol/L,136,145,Y,3,DAY 4 (TP1),TREATMENT,2021-01-09,5
D6470C00005,LB,D6470C00005-0002,21,K,Potassium,CHEMISTRY,SERUM,3.8,mmol/L,3.8,3.8,mmol/L,3.5,5.1,Y,3,DAY 4 (TP1),TREATMENT,2021-01-09,5
D6470C00005,LB,D6470C00005-0002,22,CORTISOL,Cortisol,CHEMISTRY,SERUM,221.0,nmol/L,221.0,221.0,nmol/L,138,635,Y,3,DAY 4 (TP1),TREATMENT,2021-01-09,5
D6470C00005,LB,D6470C00005-0002,23,HGB,Hemoglobin,HEMATOLOGY,SERUM,130.0,g/L,130.0,130.0,g/L,120,160,N,3,DAY 4 (TP1),TREATMENT,2021-01-09,5
D6470C00005,LB,D6470C00005-0002,24,HCT,Hematocrit,HEMATOLOGY,SERUM,0.42,1,0.42,0.42,1,0.36,0.48,N,3,DAY 4 (TP1),TREATMENT,2021-01-09,5
D6470C00005,LB,D6470C00005-0002,25,K,Potassium,URINALYSIS,URINE,53.0,mmol/L,53.0,53.0,mmol/L,,,N,3,DAY 4 (TP1),TREATMENT,2021-01-09,5
D6470C00005,LB,D6470C00005-0002,26,SODIUM,Sodium,URINALYSIS,URINE,180.0,mmol/L,180.0,180.0,mmol/L,,,N,3,DAY 4 (TP1),TREATMENT,2021-01-09,5
D6470C00005,LB,D6470C00005-0002,27,GLUC,Glucose,CHEMISTRY,SERUM,6.9,mmol/L,6.9,6.9,mmol/L,4.1,5.9,Y,5,DAY 31 (TP2),TREATMENT,2021-02-05,32
D6470C00005,LB,D6470C00005-0002,28,INSULIN,Insulin,CHEMISTRY,SERUM,106.0,pmol/L,106.0,106.0,pmol/L,18,173,Y,5,DAY 31 (TP2),TREATMENT,2021-02-05,32
D6470C00005,LB,D6470C00005-0002,29,CPEPTIDE,C-Peptide,CHEMISTRY,SERUM,1.5,nmol/L,1.5,1.5,nmol/L,0.37,1.47,Y,5,DAY 31 (TP2),TREATMENT,2021-02-05,32
D6470C00005,LB,D6470C00005-0002,30,HBA1C,Hemoglobin A1C,CHEMISTRY,SERUM,7.5,%,7.5,7.5,%,4.0,6.0,Y,5,DAY 31 (TP2),TREATMENT,2021-02-05,32
D6470C00005,LB,D6470C00005-0002,31,CHOL,Cholesterol,CHEMISTRY,SERUM,5.8,mmol/L,5.8,5.8,mmol/L,0,5.2,Y,5,DAY 31 (TP2),TREATMENT,2021-02-05,32
D6470C00005,LB,D6470C00005-0002,32,TRIG,Triglycerides,CHEMISTRY,SERUM,2.77,mmol/L,2.77,2.77,mmol/L,0,1.7,Y,5,DAY 31 (TP2),TREATMENT,2021-02-05,32
D6470C00005,LB,D6470C00005-0002,33,HDL,HDL Cholesterol,CHEMISTRY,SERUM,0.85,mmol/L,0.85,0.85,mmol/L,1.0,2.2,Y,5,DAY 31 (TP2),TREATMENT,2021-02-05,32
D6470C00005,LB,D6470C00005-0002,34,SODIUM,Sodium,CHEMISTRY,SERUM,140.0,mmol/L,140.0,140.0,mmol/L,136,145,Y,5,DAY 31 (TP2),TREATMENT,2021-02-05,32
D6470C00005,LB,D6470C00005-0002,35,K,Potassium,CHEMISTRY,SERUM,4.9,mmol/L,4.9,4.9,mmol/L,3.5,5.1,Y,5,DAY 31 (TP2),TREATMENT,2021-02-05,32
D6470C00005,LB,D6470C00005-0002,36,CORTISOL,Cortisol,CHEMISTRY,SERUM,385.0,nmol/L,385.0,385.0,nmol/L,138,635,Y,5,DAY 31 (TP2),TREATMENT,2021-02-05,32
D6470C00005,LB,D6470C00005-0002,37,HGB,Hemoglobin,HEMATOLOGY,SERUM,137.0,g/L,137.0,137.0,g/L,120,160,N,5,DAY 31 (TP2),TREATMENT,2021-02-05,32
D6470C00005,LB,D6470C00005-0002,38,HCT,Hematocrit,HEMATOLOGY,SERUM,0.47,1,0.47,0.47,1,0.36,0.48,N,5,DAY 31 (TP2),TREATMENT,2021-02-05,32
D6470C00005,LB,D6470C00005-0002,39,K,Potassium,URINALYSIS,URINE,67.0,mmol/L,67.0,67.0,mmol/L,,,N,5,DAY 31 (TP2),TREATMENT,2021-02-05,32
D6470C00005,LB,D6470C00005-0002,40,SODIUM,Sodium,URINALYSIS,URINE,44.0,mmol/L,44.0,44.0,mmol/L,,,N,5,DAY 31 (TP2),TREATMENT,2021-02-05,32
D6470C00005,LB,D6470C00005-0002,41,GLUC,Glucose,CHEMISTRY,SERUM,7.9,mmol/L,7.9,7.9,mmol/L,4.1,5.9,Y,6,FOLLOW-UP,FOLLOW-UP,2021-03-07,62
D6470C00005,LB,D6470C00005-0002,42,INSULIN,Insulin,CHEMISTRY,SERUM,133.0,pmol/L,133.0,133.0,pmol/L,18,173,Y,6,FOLLOW-UP,FOLLOW-UP,2021-03-07,62
D6470C00005,LB,D6470C00005-0002,43,CPEPTIDE,C-Peptide,CHEMISTRY,SERUM,0.45,nmol/L,0.45,0.45,nmol/L,0.37,1.47,Y,6,FOLLOW-UP,FOLLOW-UP,2021-03-07,62
D6470C00005,LB,D6470C00005-0002,44,HBA1C,Hemoglobin A1C,CHEMISTRY,SERUM,7.7,%,7.7,7.7,%,4.0,6.0,Y,6,FOLLOW-UP,FOLLOW-UP,2021-03-07,62
D6470C00005,LB,D6470C00005-0002,45,CHOL,Cholesterol,CHEMISTRY,SERUM,6.5,mmol/L,6.5,6.5,mmol/L,0,5.2,Y,6,FOLLOW-UP,FOLLOW-UP,2021-03-07,62
D6470C00005,LB,D6470C00005-0002,46,TRIG,Triglycerides,CHEMISTRY,SERUM,2.67,mmol/L,2.67,2.67,mmol/L,0,1.7,Y,6,FOLLOW-UP,FOLLOW-UP,2021-03-07,62
D6470C00005,LB,D6470C00005-0002,47,HDL,HDL Cholesterol,CHEMISTRY,SERUM,1.35,mmol/L,1.35,1.35,mmol/L,1.0,2.2,Y,6,FOLLOW-UP,FOLLOW-UP,2021-03-07,62
D6470C00005,LB,D6470C00005-0002,48,SODIUM,Sodium,CHEMISTRY,SERUM,141.0,mmol/L,141.0,141.0,mmol/L,136,145,Y,6,FOLLOW-UP,FOLLOW-UP,2021-03-07,62
D6470C00005,LB,D6470C00005-0002,49,K,Potassium,CHEMISTRY,SERUM,4.3,mmol/L,4.3,4.3,mmol/L,3.5,5.1,Y,6,FOLLOW-UP,FOLLOW-UP,2021-03-07,62
D6470C00005,LB,D6470C00005-0002,50,CORTISOL,Cortisol,CHEMISTRY,SERUM,156.0,nmol/L,156.0,156.0,nmol/L,138,635,Y,6,FOLLOW-UP,FOLLOW-UP,2021-03-07,62
D6470C00005,LB,D6470C00005-0002,51,HGB,Hemoglobin,HEMATOLOGY,SERUM,147.0,g/L,147.0,147.0,g/L,120,160,N,6,FOLLOW-UP,FOLLOW-UP,2021-03-07,62
D6470C00005,LB,D6470C00005-0002,52,HCT,Hematocrit,HEMATOLOGY,SERUM,0.38,1,0.38,0.38,1,0.36,0.48,N,6,FOLLOW-UP,FOLLOW-UP,2021-03-07,62
D6470C00005,LB,D6470C00005-0003,1,GLUC,Glucose,CHEMISTRY,SERUM,10.7,mmol/L,10.7,10.7,mmol/L,4.1,5.9,Y,1,SCREENING,SCREENING,2020-12-11,-14
D6470C00005,LB,D6470C00005-0003,2,INSULIN,Insulin,CHEMISTRY,SERUM,149.0,pmol/L,149.0,149.0,pmol/L,18,173,Y,1,SCREENING,SCREENING,2020-12-11,-14
D6470C00005,LB,D6470C00005-0003,3,CPEPTIDE,C-Peptide,CHEMISTRY,SERUM,1.45,nmol/L,1.45,1.45,nmol/L,0.37,1.47,Y,1,SCREENING,SCREENING,2020-12-11,-14
D6470C00005,LB,D6470C00005-0003,4,HBA1C,Hemoglobin A1C,CHEMISTRY,SERUM,8.7,%,8.7,8.7,%,4.0,6.0,Y,1,SCREENING,SCREENING,2020-12-11,-14
D6470C00005,LB,D6470C00005-0003,5,CHOL,Cholesterol,CHEMISTRY,SERUM,4.4,mmol/L,4.4,4.4,mmol/L,0,5.2,Y,1,SCREENING,SCREENING,2020-12-11,-14
D6470C00005,LB,D6470C00005-0003,6,TRIG,Triglycerides,CHEMISTRY,SERUM,2.33,mmol/L,2.33,2.33,mmol/L,0,1.7,Y,1,SCREENING,SCREENING,2020-12-11,-14
D6470C00005,LB,D6470C00005-0003,7,HDL,HDL Cholesterol,CHEMISTRY,SERUM,1.44,mmol/L,1.44,1.44,mmol/L,1.0,2.2,Y,1,SCREENING,SCREENING,2020-12-11,-14
D6470C00005,LB,D6470C00005-0003,8,SODIUM,Sodium,CHEMISTRY,SERUM,142.0,mmol/L,142.0,142.0,mmol/L,136,145,Y,1,SCREENING,SCREENING,2020-12-11,-14
D6470C00005,LB,D6470C00005-0003,9,K,Potassium,CHEMISTRY,SERUM,3.6,mmol/L,3.6,3.6,mmol/L,3.5,5.1,Y,1,SCREENING,SCREENING,2020-12-11,-14
D6470C00005,LB,D6470C00005-0003,10,CORTISOL,Cortisol,CHEMISTRY,SERUM,161.0,nmol/L,161.0,161.0,nmol/L,138,635,Y,1,SCREENING,SCREENING,2020-12-11,-14
D6470C00005,LB,D6470C00005-0003,11,HGB,Hemoglobin,HEMATOLOGY,SERUM,130.0,g/L,130.0,130.0,g/L,120,160,N,1,SCREENING,SCREENING,2020-12-11,-14
D6470C00005,LB,D6470C00005-0003,12,HCT,Hematocrit,HEMATOLOGY,SERUM,0.41,1,0.41,0.41,1,0.36,0.48,N,1,SCREENING,SCREENING,2020-12-11,-14
D6470C00005,LB,D6470C00005-0003,13,GLUC,Glucose,CHEMISTRY,SERUM,9.4,mmol/L,9.4,9.4,mmol/L,4.1,5.9,Y,3,DAY 4 (TP1),TREATMENT,2020-12-29,5
D6470C00005,LB,D6470C00005-0003,14,INSULIN,Insulin,CHEMISTRY,SERUM,90.0,pmol/L,90.0,90.0,pmol/L,18,173,Y,3,DAY 4 (TP1),TREATMENT,2020-12-29,5
D6470C00005,LB,D6470C00005-0003,15,CPEPTIDE,C-Peptide,CHEMISTRY,SERUM,0.58,nmol/L,0.58,0.58,nmol/L,0.37,1.47,Y,3,DAY 4 (TP1),TREATMENT,2020-12-29,5
D6470C00005,LB,D6470C00005-0003,16,HBA1C,Hemoglobin A1C,CHEMISTRY,SERUM,8.9,%,8.9,8.9,%,4.0,6.0,Y,3,DAY 4 (TP1),TREATMENT,2020-12-29,5
D6470C00005,LB,D6470C00005-0003,17,CHOL,Cholesterol,CHEMISTRY,SERUM,3.9,mmol/L,3.9,3.9,mmol/L,0,5.2,Y,3,DAY 4 (TP1),TREATMENT,2020-12-29,5
D6470C00005,LB,D6470C00005-0003,18,TRIG,Triglycerides,CHEMISTRY,SERUM,1.72,mmol/L,1.72,1.72,mmol/L,0,1.7,Y,3,DAY 4 (TP1),TREATMENT,2020-12-29,5
D6470C00005,LB,D6470C00005-0003,19,HDL,HDL Cholesterol,CHEMISTRY,SERUM,1.23,mmol/L,1.23,1.23,mmol/L,1.0,2.2,Y,3,DAY 4 (TP1),TREATMENT,2020-12-29,5
D6470C00005,LB,D6470C00005-0003,20,SODIUM,Sodium,CHEMISTRY,SERUM,137.0,mmol/L,137.0,137.0,mmol/L,136,145,Y,3,DAY 4 (TP1),TREATMENT,2020-12-29,5
D6470C00005,LB,D6470C00005-0003,21,K,Potassium,CHEMISTRY,SERUM,4.2,mmol/L,4.2,4.2,mmol/L,3.5,5.1,Y,3,DAY 4 (TP1),TREATMENT,2020-12-29,5
D6470C00005,LB,D6470C00005-0003,22,CORTISOL,Cortisol,CHEMISTRY,SERUM,372.0,nmol/L,372.0,372.0,nmol/L,138,635,Y,3,DAY 4 (TP1),TREATMENT,2020-12-29,5
D6470C00005,LB,D6470C00005-0003,23,HGB,Hemoglobin,HEMATOLOGY,SERUM,153.0,g/L,153.0,153.0,g/L,120,160,N,3,DAY 4 (TP1),TREATMENT,2020-12-29,5
D6470C00005,LB,D6470C00005-0003,24,HCT,Hematocrit,HEMATOLOGY,SERUM,0.48,1,0.48,0.48,1,0.36,0.48,N,3,DAY 4 (TP1),TREATMENT,2020-12-29,5
D6470C00005,LB,D6470C00005-0003,25,K,Potassium,URINALYSIS,URINE,28.0,mmol/L,28.0,28.0,mmol/L,,,N,3,DAY 4 (TP1),TREATMENT,2020-12-29,5
D6470C00005,LB,D6470C00005-0003,26,SODIUM,Sodium,URINALYSIS,URINE,78.0,mmol/L,78.0,78.0,mmol/L,,,N,3,DAY 4 (TP1),TREATMENT,2020-12-29,5
D6470C00005,LB,D6470C00005-0003,27,GLUC,Glucose,CHEMISTRY,SERUM,7.9,mmol/L,7.9,7.9,mmol/L,4.1,5.9,Y,5,DAY 31 (TP2),TREATMENT,2021-01-25,32
D6470C00005,LB,D6470C00005-0003,28,INSULIN,Insulin,CHEMISTRY,SERUM,117.0,pmol/L,117.0,117.0,pmol/L,18,173,Y,5,DAY 31 (TP2),TREATMENT,2021-01-25,32
D6470C00005,LB,D6470C00005-0003,29,CPEPTIDE,C-Peptide,CHEMISTRY,SERUM,1.27,nmol/L,1.27,1.27,nmol/L,0.37,1.47,Y,5,DAY 31 (TP2),TREATMENT,2021-01-25,32
D6470C00005,LB,D6470C00005-0003,30,HBA1C,Hemoglobin A1C,CHEMISTRY,SERUM,8.3,%,8.3,8.3,%,4.0,6.0,Y,5,DAY 31 (TP2),TREATMENT,2021-01-25,32
D6470C00005,LB,D6470C00005-0003,31,CHOL,Cholesterol,CHEMISTRY,SERUM,3.7,mmol/L,3.7,3.7,mmol/L,0,5.2,Y,5,DAY 31 (TP2),TREATMENT,2021-01-25,32
D6470C00005,LB,D6470C00005-0003,32,TRIG,Triglycerides,CHEMISTRY,SERUM,2.18,mmol/L,2.18,2.18,mmol/L,0,1.7,Y,5,DAY 31 (TP2),TREATMENT,2021-01-25,32
D6470C00005,LB,D6470C00005-0003,33,HDL,HDL Cholesterol,CHEMISTRY,SERUM,1.59,mmol/L,1.59,1.59,mmol/L,1.0,2.2,Y,5,DAY 31 (TP2),TREATMENT,2021-01-25,32
D6470C00005,LB,D6470C00005-0003,34,SODIUM,Sodium,CHEMISTRY,SERUM,139.0,mmol/L,139.0,139.0,mmol/L,136,145,Y,5,DAY 31 (TP2),TREATMENT,2021-01-25,32
D6470C00005,LB,D6470C00005-0003,35,K,Potassium,CHEMISTRY,SERUM,4.0,mmol/L,4.0,4.0,mmol/L,3.5,5.1,Y,5,DAY 31 (TP2),TREATMENT,2021-01-25,32
D6470C00005,LB,D6470C00005-0003,36,CORTISOL,Cortisol,CHEMISTRY,SERUM,543.0,nmol/L,543.0,543.0,nmol/L,138,635,Y,5,DAY 31 (TP2),TREATMENT,2021-01-25,32
D6470C00005,LB,D6470C00005-0003,37,HGB,Hemoglobin,HEMATOLOGY,SERUM,132.0,g/L,132.0,132.0,g/L,120,160,N,5,DAY 31 (TP2),TREATMENT,2021-01-25,32
D6470C00005,LB,D6470C00005-0003,38,HCT,Hematocrit,HEMATOLOGY,SERUM,0.41,1,0.41,0.41,1,0.36,0.48,N,5,DAY 31 (TP2),TREATMENT,2021-01-25,32
D6470C00005,LB,D6470C00005-0003,39,K,Potassium,URINALYSIS,URINE,35.0,mmol/L,35.0,35.0,mmol/L,,,N,5,DAY 31 (TP2),TREATMENT,2021-01-25,32
D6470C00005,LB,D6470C00005-0003,40,SODIUM,Sodium,URINALYSIS,URINE,154.0,mmol/L,154.0,154.0,mmol/L,,,N,5,DAY 31 (TP2),TREATMENT,2021-01-25,32
D6470C00005,LB,D6470C00005-0003,41,GLUC,Glucose,CHEMISTRY,SERUM,6.6,mmol/L,6.6,6.6,mmol/L,4.1,5.9,Y,6,FOLLOW-UP,FOLLOW-UP,2021-02-24,62
D6470C00005,LB,D6470C00005-0003,42,INSULIN,Insulin,CHEMISTRY,SERUM,102.0,pmol/L,102.0,102.0,pmol/L,18,173,Y,6,FOLLOW-UP,FOLLOW-UP,2021-02-24,62
D6470C00005,LB,D6470C00005-0003,43,CPEPTIDE,C-Peptide,CHEMISTRY,SERUM,1.4,nmol/L,1.4,1.4,nmol/L,0.37,1.47,Y,6,FOLLOW-UP,FOLLOW-UP,2021-02-24,62
D6470C00005,LB,D6470C00005-0003,44,HBA1C,Hemoglobin A1C,CHEMISTRY,SERUM,6.2,%,6.2,6.2,%,4.0,6.0,Y,6,FOLLOW-UP,FOLLOW-UP,2021-02-24,62
D6470C00005,LB,D6470C00005-0003,45,CHOL,Cholesterol,CHEMISTRY,SERUM,5.7,mmol/L,5.7,5.7,mmol/L,0,5.2,Y,6,FOLLOW-UP,FOLLOW-UP,2021-02-24,62
D6470C00005,LB,D6470C00005-0003,46,TRIG,Triglycerides,CHEMISTRY,SERUM,1.87,mmol/L,1.87,1.87,mmol/L,0,1.7,Y,6,FOLLOW-UP,FOLLOW-UP,2021-02-24,62
D6470C00005,LB,D6470C00005-0003,47,HDL,HDL Cholesterol,CHEMISTRY,SERUM,1.74,mmol/L,1.74,1.74,mmol/L,1.0,2.2,Y,6,FOLLOW-UP,FOLLOW-UP,2021-02-24,62
D6470C00005,LB,D6470C00005-0003,48,SODIUM,Sodium,CHEMISTRY,SERUM,143.0,mmol/L,143.0,143.0,mmol/L,136,145,Y,6,FOLLOW-UP,FOLLOW-UP,2021-02-24,62
D6470C00005,LB,D6470C00005-0003,49,K,Potassium,CHEMISTRY,SERUM,4.9,mmol/L,4.9,4.9,mmol/L,3.5,5.1,Y,6,FOLLOW-UP,FOLLOW-UP,2021-02-24,62
D6470C00005,LB,D6470C00005-0003,50,CORTISOL,Cortisol,CHEMISTRY,SERUM,527.0,nmol/L,527.0,527.0,nmol/L,138,635,Y,6,FOLLOW-UP,FOLLOW-UP,2021-02-24,62
D6470C00005,LB,D6470C00005-0003,51,HGB,Hemoglobin,HEMATOLOGY,SERUM,147.0,g/L,147.0,147.0,g/L,120,160,N,6,FOLLOW-UP,FOLLOW-UP,2021-02-24,62
D6470C00005,LB,D6470C00005-0003,52,HCT,Hematocrit,HEMATOLOGY,SERUM,0.39,1,0.39,0.39,1,0.36,0.48,N,6,FOLLOW-UP,FOLLOW-UP,2021-02-24,62
D6470C00005,LB,D6470C00005-0004,1,GLUC,Glucose,CHEMISTRY,SERUM,8.3,mmol/L,8.3,8.3,mmol/L,4.1,5.9,Y,1,SCREENING,SCREENING,2020-12-04,-14
D6470C00005,LB,D6470C00005-0004,2,INSULIN,Insulin,CHEMISTRY,SERUM,87.0,pmol/L,87.0,87.0,pmol/L,18,173,Y,1,SCREENING,SCREENING,2020-12-04,-14
D6470C00005,LB,D6470C00005-0004,3,CPEPTIDE,C-Peptide,CHEMISTRY,SERUM,1.12,nmol/L,1.12,1.12,nmol/L,0.37,1.47,Y,1,SCREENING,SCREENING,2020-12-04,-14
D6470C00005,LB,D6470C00005-0004,4,HBA1C,Hemoglobin A1C,CHEMISTRY,SERUM,6.6,%,6.6,6.6,%,4.0,6.0,Y,1,SCREENING,SCREENING,2020-12-04,-14
D6470C00005,LB,D6470C00005-0004,5,CHOL,Cholesterol,CHEMISTRY,SERUM,6.5,mmol/L,6.5,6.5,mmol/L,0,5.2,Y,1,SCREENING,SCREENING,2020-12-04,-14
D6470C00005,LB,D6470C00005-0004,6,TRIG,Triglycerides,CHEMISTRY,SERUM,2.9,mmol/L,2.9,2.9,mmol/L,0,1.7,Y,1,SCREENING,SCREENING,2020-12-04,-14
D6470C00005,LB,D6470C00005-0004,7,HDL,HDL Cholesterol,CHEMISTRY,SERUM,1.69,mmol/L,1.69,1.69,mmol/L,1.0,2.2,Y,1,SCREENING,SCREENING,2020-12-04,-14
D6470C00005,LB,D6470C00005-0004,8,SODIUM,Sodium,CHEMISTRY,SERUM,141.0,mmol/L,141.0,141.0,mmol/L,136,145,Y,1,SCREENING,SCREENING,2020-12-04,-14
D6470C00005,LB,D6470C00005-0004,9,K,Potassium,CHEMISTRY,SERUM,4.9,mmol/L,4.9,4.9,mmol/L,3.5,5.1,Y,1,SCREENING,SCREENING,2020-12-04,-14
D6470C00005,LB,D6470C00005-0004,10,CORTISOL,Cortisol,CHEMISTRY,SERUM,414.0,nmol/L,414.0,414.0,nmol/L,138,635,Y,1,SCREENING,SCREENING,2020-12-04,-14
D6470C00005,LB,D6470C00005-0004,11,HGB,Hemoglobin,HEMATOLOGY,SERUM,138.0,g/L,138.0,138.0,g/L,120,160,N,1,SCREENING,SCREENING,2020-12-04,-14
D6470C00005,LB,D6470C00005-0004,12,HCT,Hematocrit,HEMATOLOGY,SERUM,0.4,1,0.4,0.4,1,0.36,0.48,N,1,SCREENING,SCREENING,2020-12-04,-14
D6470C00005,LB,D6470C00005-0004,13,GLUC,Glucose,CHEMISTRY,SERUM,11.2,mmol/L,11.2,11.2,mmol/L,4.1,5.9,Y,3,DAY 4 (TP1),TREATMENT,2020-12-22,5
D6470C00005,LB,D6470C00005-0004,14,INSULIN,Insulin,CHEMISTRY,SERUM,45.0,pmol/L,45.0,45.0,pmol/L,18,173,Y,3,DAY 4 (TP1),TREATMENT,2020-12-22,5
D6470C00005,LB,D6470C00005-0004,15,CPEPTIDE,C-Peptide,CHEMISTRY,SERUM,1.5,nmol/L,1.5,1.5,nmol/L,0.37,1.47,Y,3,DAY 4 (TP1),TREATMENT,2020-12-22,5
D6470C00005,LB,D6470C00005-0004,16,HBA1C,Hemoglobin A1C,CHEMISTRY,SERUM,8.4,%,8.4,8.4,%,4.0,6.0,Y,3,DAY 4 (TP1),TREATMENT,2020-12-22,5
D6470C00005,LB,D6470C00005-0004,17,CHOL,Cholesterol,CHEMISTRY,SERUM,5.5,mmol/L,5.5,5.5,mmol/L,0,5.2,Y,3,DAY 4 (TP1),TREATMENT,2020-12-22,5
D6470C00005,LB,D6470C00005-0004,18,TRIG,Triglycerides,CHEMISTRY,SERUM,1.99,mmol/L,1.99,1.99,mmol/L,0,1.7,Y,3,DAY 4 (TP1),TREATMENT,2020-12-22,5
D6470C00005,LB,D6470C00005-0004,19,HDL,HDL Cholesterol,CHEMISTRY,SERUM,1.48,mmol/L,1.48,1.48,mmol/L,1.0,2.2,Y,3,DAY 4 (TP1),TREATMENT,2020-12-22,5
D6470C00005,LB,D6470C00005-0004,20,SODIUM,Sodium,CHEMISTRY,SERUM,139.0,mmol/L,139.0,139.0,mmol/L,136,145,Y,3,DAY 4 (TP1),TREATMENT,2020-12-22,5
D6470C00005,LB,D6470C00005-0004,21,K,Potassium,CHEMISTRY,SERUM,4.0,mmol/L,4.0,4.0,mmol/L,3.5,5.1,Y,3,DAY 4 (TP1),TREATMENT,2020-12-22,5
D6470C00005,LB,D6470C00005-0004,22,CORTISOL,Cortisol,CHEMISTRY,SERUM,298.0,nmol/L,298.0,298.0,nmol/L,138,635,Y,3,DAY 4 (TP1),TREATMENT,2020-12-22,5
D6470C00005,LB,D6470C00005-0004,23,HGB,Hemoglobin,HEMATOLOGY,SERUM,131.0,g/L,131.0,131.0,g/L,120,160,N,3,DAY 4 (TP1),TREATMENT,2020-12-22,5
D6470C00005,LB,D6470C00005-0004,24,HCT,Hematocrit,HEMATOLOGY,SERUM,0.43,1,0.43,0.43,1,0.36,0.48,N,3,DAY 4 (TP1),TREATMENT,2020-12-22,5
D6470C00005,LB,D6470C00005-0004,25,K,Potassium,URINALYSIS,URINE,62.0,mmol/L,62.0,62.0,mmol/L,,,N,3,DAY 4 (TP1),TREATMENT,2020-12-22,5
D6470C00005,LB,D6470C00005-0004,26,SODIUM,Sodium,URINALYSIS,URINE,56.0,mmol/L,56.0,56.0,mmol/L,,,N,3,DAY 4 (TP1),TREATMENT,2020-12-22,5
D6470C00005,LB,D6470C00005-0004,27,GLUC,Glucose,CHEMISTRY,SERUM,8.9,mmol/L,8.9,8.9,mmol/L,4.1,5.9,Y,5,DAY 31 (TP2),TREATMENT,2021-01-18,32
D6470C00005,LB,D6470C00005-0004,28,INSULIN,Insulin,CHEMISTRY,SERUM,91.0,pmol/L,91.0,91.0,pmol/L,18,173,Y,5,DAY 31 (TP2),TREATMENT,2021-01-18,32
D6470C00005,LB,D6470C00005-0004,29,CPEPTIDE,C-Peptide,CHEMISTRY,SERUM,0.76,nmol/L,0.76,0.76,nmol/L,0.37,1.47,Y,5,DAY 31 (TP2),TREATMENT,2021-01-18,32
D6470C00005,LB,D6470C00005-0004,30,HBA1C,Hemoglobin A1C,CHEMISTRY,SERUM,7.7,%,7.7,7.7,%,4.0,6.0,Y,5,DAY 31 (TP2),TREATMENT,2021-01-18,32
D6470C00005,LB,D6470C00005-0004,31,CHOL,Cholesterol,CHEMISTRY,SERUM,5.1,mmol/L,5.1,5.1,mmol/L,0,5.2,Y,5,DAY 31 (TP2),TREATMENT,2021-01-18,32
D6470C00005,LB,D6470C00005-0004,32,TRIG,Triglycerides,CHEMISTRY,SERUM,2.6,mmol/L,2.6,2.6,mmol/L,0,1.7,Y,5,DAY 31 (TP2),TREATMENT,2021-01-18,32
D6470C00005,LB,D6470C00005-0004,33,HDL,HDL Cholesterol,CHEMISTRY,SERUM,1.74,mmol/L,1.74,1.74,mmol/L,1.0,2.2,Y,5,DAY 31 (TP2),TREATMENT,2021-01-18,32
D6470C00005,LB,D6470C00005-0004,34,SODIUM,Sodium,CHEMISTRY,SERUM,144.0,mmol/L,144.0,144.0,mmol/L,136,145,Y,5,DAY 31 (TP2),TREATMENT,2021-01-18,32
D6470C00005,LB,D6470C00005-0004,35,K,Potassium,CHEMISTRY,SERUM,4.2,mmol/L,4.2,4.2,mmol/L,3.5,5.1,Y,5,DAY 31 (TP2),TREATMENT,2021-01-18,32
D6470C00005,LB,D6470C00005-0004,36,CORTISOL,Cortisol,CHEMISTRY,SERUM,294.0,nmol/L,294.0,294.0,nmol/L,138,635,Y,5,DAY 31 (TP2),TREATMENT,2021-01-18,32
D6470C00005,LB,D6470C00005-0004,37,HGB,Hemoglobin,HEMATOLOGY,SERUM,143.0,g/L,143.0,143.0,g/L,120,160,N,5,DAY 31 (TP2),TREATMENT,2021-01-18,32
D6470C00005,LB,D6470C00005-0004,38,HCT,Hematocrit,HEMATOLOGY,SERUM,0.42,1,0.42,0.42,1,0.36,0.48,N,5,DAY 31 (TP2),TREATMENT,2021-01-18,32
D6470C00005,LB,D6470C00005-0004,39,K,Potassium,URINALYSIS,URINE,44.0,mmol/L,44.0,44.0,mmol/L,,,N,5,DAY 31 (TP2),TREATMENT,2021-01-18,32
D6470C00005,LB,D6470C00005-0004,40,SODIUM,Sodium,URINALYSIS,URINE,91.0,mmol/L,91.0,91.0,mmol/L,,,N,5,DAY 31 (TP2),TREATMENT,2021-01-18,32
D6470C00005,LB,D6470C00005-0004,41,GLUC,Glucose,CHEMISTRY,SERUM,10.0,mmol/L,10.0,10.0,mmol/L,4.1,5.9,Y,6,FOLLOW-UP,FOLLOW-UP,2021-02-17,62
D6470C00005,LB,D6470C00005-0004,42,INSULIN,Insulin,CHEMISTRY,SERUM,60.0,pmol/L,60.0,60.0,pmol/L,18,173,Y,6,FOLLOW-UP,FOLLOW-UP,2021-02-17,62
D6470C00005,LB,D6470C00005-0004,43,CPEPTIDE,C-Peptide,CHEMISTRY,SERUM,1.05,nmol/L,1.05,1.05,nmol/L,0.37,1.47,Y,6,FOLLOW-UP,FOLLOW-UP,2021-02-17,62
D6470C00005,LB,D6470C00005-0004,44,HBA1C,Hemoglobin A1C,CHEMISTRY,SERUM,8.3,%,8.3,8.3,%,4.0,6.0,Y,6,FOLLOW-UP,FOLLOW-UP,2021-02-17,62
D6470C00005,LB,D6470C00005-0004,45,CHOL,Cholesterol,CHEMISTRY,SERUM,4.4,mmol/L,4.4,4.4,mmol/L,0,5.2,Y,6,FOLLOW-UP,FOLLOW-UP,2021-02-17,62
D6470C00005,LB,D6470C00005-0004,46,TRIG,Triglycerides,CHEMISTRY,SERUM,1.34,mmol/L,1.34,1.34,mmol/L,0,1.7,Y,6,FOLLOW-UP,FOLLOW-UP,2021-02-17,62
D6470C00005,LB,D6470C00005-0004,47,HDL,HDL Cholesterol,CHEMISTRY,SERUM,0.87,mmol/L,0.87,0.87,mmol/L,1.0,2.2,Y,6,FOLLOW-UP,FOLLOW-UP,2021-02-17,62
D6470C00005,LB,D6470C00005-0004,48,SODIUM,Sodium,CHEMISTRY,SERUM,136.0,mmol/L,136.0,136.0,mmol/L,136,145,Y,6,FOLLOW-UP,FOLLOW-UP,2021-02-17,62
D6470C00005,LB,D6470C00005-0004,49,K,Potassium,CHEMISTRY,SERUM,4.9,mmol/L,4.9,4.9,mmol/L,3.5,5.1,Y,6,FOLLOW-UP,FOLLOW-UP,2021-02-17,62
D6470C00005,LB,D6470C00005-0004,50,CORTISOL,Cortisol,CHEMISTRY,SERUM,421.0,nmol/L,421.0,421.0,nmol/L,138,635,Y,6,FOLLOW-UP,FOLLOW-UP,2021-02-17,62
D6470C00005,LB,D6470C00005-0004,51,HGB,Hemoglobin,HEMATOLOGY,SERUM,122.0,g/L,122.0,122.0,g/L,120,160,N,6,FOLLOW-UP,FOLLOW-UP,2021-02-17,62
D6470C00005,LB,D6470C00005-0004,52,HCT,Hematocrit,HEMATOLOGY,SERUM,0.5,1,0.5,0.5,1,0.36,0.48,N,6,FOLLOW-UP,FOLLOW-UP,2021-02-17,62
D6470C00005,LB,D6470C00005-0005,1,GLUC,Glucose,CHEMISTRY,SERUM,8.9,mmol/L,8.9,8.9,mmol/L,4.1,5.9,Y,1,SCREENING,SCREENING,2021-02-14,-14
D6470C00005,LB,D6470C00005-0005,2,INSULIN,Insulin,CHEMISTRY,SERUM,42.0,pmol/L,42.0,42.0,pmol/L,18,173,Y,1,SCREENING,SCREENING,2021-02-14,-14
D6470C00005,LB,D6470C00005-0005,3,CPEPTIDE,C-Peptide,CHEMISTRY,SERUM,1.41,nmol/L,1.41,1.41,nmol/L,0.37,1.47,Y,1,SCREENING,SCREENING,2021-02-14,-14
D6470C00005,LB,D6470C00005-0005,4,HBA1C,Hemoglobin A1C,CHEMISTRY,SERUM,6.1,%,6.1,6.1,%,4.0,6.0,Y,1,SCREENING,SCREENING,2021-02-14,-14
D6470C00005,LB,D6470C00005-0005,5,CHOL,Cholesterol,CHEMISTRY,SERUM,6.3,mmol/L,6.3,6.3,mmol/L,0,5.2,Y,1,SCREENING,SCREENING,2021-02-14,-14
D6470C00005,LB,D6470C00005-0005,6,TRIG,Triglycerides,CHEMISTRY,SERUM,1.9,mmol/L,1.9,1.9,mmol/L,0,1.7,Y,1,SCREENING,SCREENING,2021-02-14,-14
D6470C00005,LB,D6470C00005-0005,7,HDL,HDL Cholesterol,CHEMISTRY,SERUM,1.71,mmol/L,1.71,1.71,mmol/L,1.0,2.2,Y,1,SCREENING,SCREENING,2021-02-14,-14
D6470C00005,LB,D6470C00005-0005,8,SODIUM,Sodium,CHEMISTRY,SERUM,143.0,mmol/L,143.0,143.0,mmol/L,136,145,Y,1,SCREENING,SCREENING,2021-02-14,-14
D6470C00005,LB,D6470C00005-0005,9,K,Potassium,CHEMISTRY,SERUM,4.5,mmol/L,4.5,4.5,mmol/L,3.5,5.1,Y,1,SCREENING,SCREENING,2021-02-14,-14
D6470C00005,LB,D6470C00005-0005,10,CORTISOL,Cortisol,CHEMISTRY,SERUM,543.0,nmol/L,543.0,543.0,nmol/L,138,635,Y,1,SCREENING,SCREENING,2021-02-14,-14
D6470C00005,LB,D6470C00005-0005,11,HGB,Hemoglobin,HEMATOLOGY,SERUM,160.0,g/L,160.0,160.0,g/L,120,160,N,1,SCREENING,SCREENING,2021-02-14,-14
D6470C00005,LB,D6470C00005-0005,12,HCT,Hematocrit,HEMATOLOGY,SERUM,0.44,1,0.44,0.44,1,0.36,0.48,N,1,SCREENING,SCREENING,2021-02-14,-14
D6470C00005,LB,D6470C00005-0005,13,GLUC,Glucose,CHEMISTRY,SERUM,6.8,mmol/L,6.8,6.8,mmol/L,4.1,5.9,Y,3,DAY 4 (TP1),TREATMENT,2021-03-04,5
D6470C00005,LB,D6470C00005-0005,14,INSULIN,Insulin,CHEMISTRY,SERUM,120.0,pmol/L,120.0,120.0,pmol/L,18,173,Y,3,DAY 4 (TP1),TREATMENT,2021-03-04,5
D6470C00005,LB,D6470C00005-0005,15,CPEPTIDE,C-Peptide,CHEMISTRY,SERUM,0.58,nmol/L,0.58,0.58,nmol/L,0.37,1.47,Y,3,DAY 4 (TP1),TREATMENT,2021-03-04,5
D6470C00005,LB,D6470C00005-0005,16,HBA1C,Hemoglobin A1C,CHEMISTRY,SERUM,6.3,%,6.3,6.3,%,4.0,6.0,Y,3,DAY 4 (TP1),TREATMENT,2021-03-04,5
D6470C00005,LB,D6470C00005-0005,17,CHOL,Cholesterol,CHEMISTRY,SERUM,4.5,mmol/L,4.5,4.5,mmol/L,0,5.2,Y,3,DAY 4 (TP1),TREATMENT,2021-03-04,5
D6470C00005,LB,D6470C00005-0005,18,TRIG,Triglycerides,CHEMISTRY,SERUM,2.67,mmol/L,2.67,2.67,mmol/L,0,1.7,Y,3,DAY 4 (TP1),TREATMENT,2021-03-04,5
D6470C00005,LB,D6470C00005-0005,19,HDL,HDL Cholesterol,CHEMISTRY,SERUM,1.63,mmol/L,1.63,1.63,mmol/L,1.0,2.2,Y,3,DAY 4 (TP1),TREATMENT,2021-03-04,5
D6470C00005,LB,D6470C00005-0005,20,SODIUM,Sodium,CHEMISTRY,SERUM,139.0,mmol/L,139.0,139.0,mmol/L,136,145,Y,3,DAY 4 (TP1),TREATMENT,2021-03-04,5
D6470C00005,LB,D6470C00005-0005,21,K,Potassium,CHEMISTRY,SERUM,4.7,mmol/L,4.7,4.7,mmol/L,3.5,5.1,Y,3,DAY 4 (TP1),TREATMENT,2021-03-04,5
D6470C00005,LB,D6470C00005-0005,22,CORTISOL,Cortisol,CHEMISTRY,SERUM,516.0,nmol/L,516.0,516.0,nmol/L,138,635,Y,3,DAY 4 (TP1),TREATMENT,2021-03-04,5
D6470C00005,LB,D6470C00005-0005,23,HGB,Hemoglobin,HEMATOLOGY,SERUM,151.0,g/L,151.0,151.0,g/L,120,160,N,3,DAY 4 (TP1),TREATMENT,2021-03-04,5
D6470C00005,LB,D6470C00005-0005,24,HCT,Hematocrit,HEMATOLOGY,SERUM,0.5,1,0.5,0.5,1,0.36,0.48,N,3,DAY 4 (TP1),TREATMENT,2021-03-04,5
D6470C00005,LB,D6470C00005-0005,25,K,Potassium,URINALYSIS,URINE,37.0,mmol/L,37.0,37.0,mmol/L,,,N,3,DAY 4 (TP1),TREATMENT,2021-03-04,5
D6470C00005,LB,D6470C00005-0005,26,SODIUM,Sodium,URINALYSIS,URINE,173.0,mmol/L,173.0,173.0,mmol/L,,,N,3,DAY 4 (TP1),TREATMENT,2021-03-04,5
D6470C00005,LB,D6470C00005-0005,27,GLUC,Glucose,CHEMISTRY,SERUM,8.9,mmol/L,8.9,8.9,mmol/L,4.1,5.9,Y,5,DAY 31 (TP2),TREATMENT,2021-03-31,32
D6470C00005,LB,D6470C00005-0005,28,INSULIN,Insulin,CHEMISTRY,SERUM,85.0,pmol/L,85.0,85.0,pmol/L,18,173,Y,5,DAY 31 (TP2),TREATMENT,2021-03-31,32
D6470C00005,LB,D6470C00005-0005,29,CPEPTIDE,C-Peptide,CHEMISTRY,SERUM,0.92,nmol/L,0.92,0.92,nmol/L,0.37,1.47,Y,5,DAY 31 (TP2),TREATMENT,2021-03-31,32
D6470C00005,LB,D6470C00005-0005,30,HBA1C,Hemoglobin A1C,CHEMISTRY,SERUM,7.3,%,7.3,7.3,%,4.0,6.0,Y,5,DAY 31 (TP2),TREATMENT,2021-03-31,32
D6470C00005,LB,D6470C00005-0005,31,CHOL,Cholesterol,CHEMISTRY,SERUM,3.5,mmol/L,3.5,3.5,mmol/L,0,5.2,Y,5,DAY 31 (TP2),TREATMENT,2021-03-31,32
D6470C00005,LB,D6470C00005-0005,32,TRIG,Triglycerides,CHEMISTRY,SERUM,2.72,mmol/L,2.72,2.72,mmol/L,0,1.7,Y,5,DAY 31 (TP2),TREATMENT,2021-03-31,32
D6470C00005,LB,D6470C00005-0005,33,HDL,HDL Cholesterol,CHEMISTRY,SERUM,1.27,mmol/L,1.27,1.27,mmol/L,1.0,2.2,Y,5,DAY 31 (TP2),TREATMENT,2021-03-31,32
D6470C00005,LB,D6470C00005-0005,34,SODIUM,Sodium,CHEMISTRY,SERUM,135.0,mmol/L,135.0,135.0,mmol/L,136,145,Y,5,DAY 31 (TP2),TREATMENT,2021-03-31,32
D6470C00005,LB,D6470C00005-0005,35,K,Potassium,CHEMISTRY,SERUM,3.8,mmol/L,3.8,3.8,mmol/L,3.5,5.1,Y,5,DAY 31 (TP2),TREATMENT,2021-03-31,32
D6470C00005,LB,D6470C00005-0005,36,CORTISOL,Cortisol,CHEMISTRY,SERUM,466.0,nmol/L,466.0,466.0,nmol/L,138,635,Y,5,DAY 31 (TP2),TREATMENT,2021-03-31,32
D6470C00005,LB,D6470C00005-0005,37,HGB,Hemoglobin,HEMATOLOGY,SERUM,128.0,g/L,128.0,128.0,g/L,120,160,N,5,DAY 31 (TP2),TREATMENT,2021-03-31,32
D6470C00005,LB,D6470C00005-0005,38,HCT,Hematocrit,HEMATOLOGY,SERUM,0.47,1,0.47,0.47,1,0.36,0.48,N,5,DAY 31 (TP2),TREATMENT,2021-03-31,32
D6470C00005,LB,D6470C00005-0005,39,K,Potassium,URINALYSIS,URINE,74.0,mmol/L,74.0,74.0,mmol/L,,,N,5,DAY 31 (TP2),TREATMENT,2021-03-31,32
D6470C00005,LB,D6470C00005-0005,40,SODIUM,Sodium,URINALYSIS,URINE,97.0,mmol/L,97.0,97.0,mmol/L,,,N,5,DAY 31 (TP2),TREATMENT,2021-03-31,32
D6470C00005,LB,D6470C00005-0005,41,GLUC,Glucose,CHEMISTRY,SERUM,7.0,mmol/L,7.0,7.0,mmol/L,4.1,5.9,Y,6,FOLLOW-UP,FOLLOW-UP,2021-04-30,62
D6470C00005,LB,D6470C00005-0005,42,INSULIN,Insulin,CHEMISTRY,SERUM,104.0,pmol/L,104.0,104.0,pmol/L,18,173,Y,6,FOLLOW-UP,FOLLOW-UP,2021-04-30,62
D6470C00005,LB,D6470C00005-0005,43,CPEPTIDE,C-Peptide,CHEMISTRY,SERUM,1.34,nmol/L,1.34,1.34,nmol/L,0.37,1.47,Y,6,FOLLOW-UP,FOLLOW-UP,2021-04-30,62
D6470C00005,LB,D6470C00005-0005,44,HBA1C,Hemoglobin A1C,CHEMISTRY,SERUM,7.7,%,7.7,7.7,%,4.0,6.0,Y,6,FOLLOW-UP,FOLLOW-UP,2021-04-30,62
D6470C00005,LB,D6470C00005-0005,45,CHOL,Cholesterol,CHEMISTRY,SERUM,6.3,mmol/L,6.3,6.3,mmol/L,0,5.2,Y,6,FOLLOW-UP,FOLLOW-UP,2021-04-30,62
D6470C00005,LB,D6470C00005-0005,46,TRIG,Triglycerides,CHEMISTRY,SERUM,2.57,mmol/L,2.57,2.57,mmol/L,0,1.7,Y,6,FOLLOW-UP,FOLLOW-UP,2021-04-30,62
D6470C00005,LB,D6470C00005-0005,47,HDL,HDL Cholesterol,CHEMISTRY,SERUM,1.25,mmol/L,1.25,1.25,mmol/L,1.0,2.2,Y,6,FOLLOW-UP,FOLLOW-UP,2021-04-30,62
D6470C00005,LB,D6470C00005-0005,48,SODIUM,Sodium,CHEMISTRY,SERUM,136.0,mmol/L,136.0,136.0,mmol/L,136,145,Y,6,FOLLOW-UP,FOLLOW-UP,2021-04-30,62
D6470C00005,LB,D6470C00005-0005,49,K,Potassium,CHEMISTRY,SERUM,4.1,mmol/L,4.1,4.1,mmol/L,3.5,5.1,Y,6,FOLLOW-UP,FOLLOW-UP,2021-04-30,62
D6470C00005,LB,D6470C00005-0005,50,CORTISOL,Cortisol,CHEMISTRY,SERUM,343.0,nmol/L,343.0,343.0,nmol/L,138,635,Y,6,FOLLOW-UP,FOLLOW-UP,2021-04-30,62
D6470C00005,LB,D6470C00005-0005,51,HGB,Hemoglobin,HEMATOLOGY,SERUM,122.0,g/L,122.0,122.0,g/L,120,160,N,6,FOLLOW-UP,FOLLOW-UP,2021-04-30,62
D6470C00005,LB,D6470C00005-0005,52,HCT,Hematocrit,HEMATOLOGY,SERUM,0.39,1,0.39,0.39,1,0.36,0.48,N,6,FOLLOW-UP,FOLLOW-UP,2021-04-30,62
D6470C00005,LB,D6470C00005-0006,1,GLUC,Glucose,CHEMISTRY,SERUM,11.4,mmol/L,11.4,11.4,mmol/L,4.1,5.9,Y,1,SCREENING,SCREENING,2021-03-18,-14
D6470C00005,LB,D6470C00005-0006,2,INSULIN,Insulin,CHEMISTRY,SERUM,58.0,pmol/L,58.0,58.0,pmol/L,18,173,Y,1,SCREENING,SCREENING,2021-03-18,-14
D6470C00005,LB,D6470C00005-0006,3,CPEPTIDE,C-Peptide,CHEMISTRY,SERUM,1.33,nmol/L,1.33,1.33,nmol/L,0.37,1.47,Y,1,SCREENING,SCREENING,2021-03-18,-14
D6470C00005,LB,D6470C00005-0006,4,HBA1C,Hemoglobin A1C,CHEMISTRY,SERUM,8.4,%,8.4,8.4,%,4.0,6.0,Y,1,SCREENING,SCREENING,2021-03-18,-14
D6470C00005,LB,D6470C00005-0006,5,CHOL,Cholesterol,CHEMISTRY,SERUM,6.6,mmol/L,6.6,6.6,mmol/L,0,5.2,Y,1,SCREENING,SCREENING,2021-03-18,-14
D6470C00005,LB,D6470C00005-0006,6,TRIG,Triglycerides,CHEMISTRY,SERUM,2.91,mmol/L,2.91,2.91,mmol/L,0,1.7,Y,1,SCREENING,SCREENING,2021-03-18,-14
D6470C00005,LB,D6470C00005-0006,7,HDL,HDL Cholesterol,CHEMISTRY,SERUM,0.98,mmol/L,0.98,0.98,mmol/L,1.0,2.2,Y,1,SCREENING,SCREENING,2021-03-18,-14
D6470C00005,LB,D6470C00005-0006,8,SODIUM,Sodium,CHEMISTRY,SERUM,136.0,mmol/L,136.0,136.0,mmol/L,136,145,Y,1,SCREENING,SCREENING,2021-03-18,-14
D6470C00005,LB,D6470C00005-0006,9,K,Potassium,CHEMISTRY,SERUM,4.2,mmol/L,4.2,4.2,mmol/L,3.5,5.1,Y,1,SCREENING,SCREENING,2021-03-18,-14
D6470C00005,LB,D6470C00005-0006,10,CORTISOL,Cortisol,CHEMISTRY,SERUM,505.0,nmol/L,505.0,505.0,nmol/L,138,635,Y,1,SCREENING,SCREENING,2021-03-18,-14
D6470C00005,LB,D6470C00005-0006,11,HGB,Hemoglobin,HEMATOLOGY,SERUM,140.0,g/L,140.0,140.0,g/L,120,160,N,1,SCREENING,SCREENING,2021-03-18,-14
D6470C00005,LB,D6470C00005-0006,12,HCT,Hematocrit,HEMATOLOGY,SERUM,0.43,1,0.43,0.43,1,0.36,0.48,N,1,SCREENING,SCREENING,2021-03-18,-14
D6470C00005,LB,D6470C00005-0006,13,GLUC,Glucose,CHEMISTRY,SERUM,9.6,mmol/L,9.6,9.6,mmol/L,4.1,5.9,Y,3,DAY 4 (TP1),TREATMENT,2021-04-05,5
D6470C00005,LB,D6470C00005-0006,14,INSULIN,Insulin,CHEMISTRY,SERUM,94.0,pmol/L,94.0,94.0,pmol/L,18,173,Y,3,DAY 4 (TP1),TREATMENT,2021-04-05,5
D6470C00005,LB,D6470C00005-0006,15,CPEPTIDE,C-Peptide,CHEMISTRY,SERUM,1.16,nmol/L,1.16,1.16,nmol/L,0.37,1.47,Y,3,DAY 4 (TP1),TREATMENT,2021-04-05,5
D6470C00005,LB,D6470C00005-0006,16,HBA1C,Hemoglobin A1C,CHEMISTRY,SERUM,8.6,%,8.6,8.6,%,4.0,6.0,Y,3,DAY 4 (TP1),TREATMENT,2021-04-05,5
D6470C00005,LB,D6470C00005-0006,17,CHOL,Cholesterol,CHEMISTRY,SERUM,3.9,mmol/L,3.9,3.9,mmol/L,0,5.2,Y,3,DAY 4 (TP1),TREATMENT,2021-04-05,5
D6470C00005,LB,D6470C00005-0006,18,TRIG,Triglycerides,CHEMISTRY,SERUM,2.56,mmol/L,2.56,2.56,mmol/L,0,1.7,Y,3,DAY 4 (TP1),TREATMENT,2021-04-05,5
D6470C00005,LB,D6470C00005-0006,19,HDL,HDL Cholesterol,CHEMISTRY,SERUM,1.65,mmol/L,1.65,1.65,mmol/L,1.0,2.2,Y,3,DAY 4 (TP1),TREATMENT,2021-04-05,5
D6470C00005,LB,D6470C00005-0006,20,SODIUM,Sodium,CHEMISTRY,SERUM,142.0,mmol/L,142.0,142.0,mmol/L,136,145,Y,3,DAY 4 (TP1),TREATMENT,2021-04-05,5
D6470C00005,LB,D6470C00005-0006,21,K,Potassium,CHEMISTRY,SERUM,5.0,mmol/L,5.0,5.0,mmol/L,3.5,5.1,Y,3,DAY 4 (TP1),TREATMENT,2021-04-05,5
D6470C00005,LB,D6470C00005-0006,22,CORTISOL,Cortisol,CHEMISTRY,SERUM,293.0,nmol/L,293.0,293.0,nmol/L,138,635,Y,3,DAY 4 (TP1),TREATMENT,2021-04-05,5
D6470C00005,LB,D6470C00005-0006,23,HGB,Hemoglobin,HEMATOLOGY,SERUM,162.0,g/L,162.0,162.0,g/L,120,160,N,3,DAY 4 (TP1),TREATMENT,2021-04-05,5
D6470C00005,LB,D6470C00005-0006,24,HCT,Hematocrit,HEMATOLOGY,SERUM,0.45,1,0.45,0.45,1,0.36,0.48,N,3,DAY 4 (TP1),TREATMENT,2021-04-05,5
D6470C00005,LB,D6470C00005-0006,25,K,Potassium,URINALYSIS,URINE,72.0,mmol/L,72.0,72.0,mmol/L,,,N,3,DAY 4 (TP1),TREATMENT,2021-04-05,5
D6470C00005,LB,D6470C00005-0006,26,SODIUM,Sodium,URINALYSIS,URINE,73.0,mmol/L,73.0,73.0,mmol/L,,,N,3,DAY 4 (TP1),TREATMENT,2021-04-05,5
D6470C00005,LB,D6470C00005-0006,27,GLUC,Glucose,CHEMISTRY,SERUM,7.3,mmol/L,7.3,7.3,mmol/L,4.1,5.9,Y,5,DAY 31 (TP2),TREATMENT,2021-05-02,32
D6470C00005,LB,D6470C00005-0006,28,INSULIN,Insulin,CHEMISTRY,SERUM,48.0,pmol/L,48.0,48.0,pmol/L,18,173,Y,5,DAY 31 (TP2),TREATMENT,2021-05-02,32
D6470C00005,LB,D6470C00005-0006,29,CPEPTIDE,C-Peptide,CHEMISTRY,SERUM,0.99,nmol/L,0.99,0.99,nmol/L,0.37,1.47,Y,5,DAY 31 (TP2),TREATMENT,2021-05-02,32
D6470C00005,LB,D6470C00005-0006,30,HBA1C,Hemoglobin A1C,CHEMISTRY,SERUM,7.3,%,7.3,7.3,%,4.0,6.0,Y,5,DAY 31 (TP2),TREATMENT,2021-05-02,32
D6470C00005,LB,D6470C00005-0006,31,CHOL,Cholesterol,CHEMISTRY,SERUM,3.9,mmol/L,3.9,3.9,mmol/L,0,5.2,Y,5,DAY 31 (TP2),TREATMENT,2021-05-02,32
D6470C00005,LB,D6470C00005-0006,32,TRIG,Triglycerides,CHEMISTRY,SERUM,3.01,mmol/L,3.01,3.01,mmol/L,0,1.7,Y,5,DAY 31 (TP2),TREATMENT,2021-05-02,32
D6470C00005,LB,D6470C00005-0006,33,HDL,HDL Cholesterol,CHEMISTRY,SERUM,1.38,mmol/L,1.38,1.38,mmol/L,1.0,2.2,Y,5,DAY 31 (TP2),TREATMENT,2021-05-02,32
D6470C00005,LB,D6470C00005-0006,34,SODIUM,Sodium,CHEMISTRY,SERUM,137.0,mmol/L,137.0,137.0,mmol/L,136,145,Y,5,DAY 31 (TP2),TREATMENT,2021-05-02,32
D6470C00005,LB,D6470C00005-0006,35,K,Potassium,CHEMISTRY,SERUM,3.9,mmol/L,3.9,3.9,mmol/L,3.5,5.1,Y,5,DAY 31 (TP2),TREATMENT,2021-05-02,32
D6470C00005,LB,D6470C00005-0006,36,CORTISOL,Cortisol,CHEMISTRY,SERUM,274.0,nmol/L,274.0,274.0,nmol/L,138,635,Y,5,DAY 31 (TP2),TREATMENT,2021-05-02,32
D6470C00005,LB,D6470C00005-0006,37,HGB,Hemoglobin,HEMATOLOGY,SERUM,128.0,g/L,128.0,128.0,g/L,120,160,N,5,DAY 31 (TP2),TREATMENT,2021-05-02,32
D6470C00005,LB,D6470C00005-0006,38,HCT,Hematocrit,HEMATOLOGY,SERUM,0.41,1,0.41,0.41,1,0.36,0.48,N,5,DAY 31 (TP2),TREATMENT,2021-05-02,32
D6470C00005,LB,D6470C00005-0006,39,K,Potassium,URINALYSIS,URINE,60.0,mmol/L,60.0,60.0,mmol/L,,,N,5,DAY 31 (TP2),TREATMENT,2021-05-02,32
D6470C00005,LB,D6470C00005-0006,40,SODIUM,Sodium,URINALYSIS,URINE,48.0,mmol/L,48.0,48.0,mmol/L,,,N,5,DAY 31 (TP2),TREATMENT,2021-05-02,32
D6470C00005,LB,D6470C00005-0006,41,GLUC,Glucose,CHEMISTRY,SERUM,7.9,mmol/L,7.9,7.9,mmol/L,4.1,5.9,Y,6,FOLLOW-UP,FOLLOW-UP,2021-06-01,62
D6470C00005,LB,D6470C00005-0006,42,INSULIN,Insulin,CHEMISTRY,SERUM,65.0,pmol/L,65.0,65.0,pmol/L,18,173,Y,6,FOLLOW-UP,FOLLOW-UP,2021-06-01,62
D6470C00005,LB,D6470C00005-0006,43,CPEPTIDE,C-Peptide,CHEMISTRY,SERUM,1.52,nmol/L,1.52,1.52,nmol/L,0.37,1.47,Y,6,FOLLOW-UP,FOLLOW-UP,2021-06-01,62
D6470C00005,LB,D6470C00005-0006,44,HBA1C,Hemoglobin A1C,CHEMISTRY,SERUM,8.3,%,8.3,8.3,%,4.0,6.0,Y,6,FOLLOW-UP,FOLLOW-UP,2021-06-01,62
D6470C00005,LB,D6470C00005-0006,45,CHOL,Cholesterol,CHEMISTRY,SERUM,6.7,mmol/L,6.7,6.7,mmol/L,0,5.2,Y,6,FOLLOW-UP,FOLLOW-UP,2021-06-01,62
D6470C00005,LB,D6470C00005-0006,46,TRIG,Triglycerides,CHEMISTRY,SERUM,2.18,mmol/L,2.18,2.18,mmol/L,0,1.7,Y,6,FOLLOW-UP,FOLLOW-UP,2021-06-01,62
D6470C00005,LB,D6470C00005-0006,47,HDL,HDL Cholesterol,CHEMISTRY,SERUM,1.17,mmol/L,1.17,1.17,mmol/L,1.0,2.2,Y,6,FOLLOW-UP,FOLLOW-UP,2021-06-01,62
D6470C00005,LB,D6470C00005-0006,48,SODIUM,Sodium,CHEMISTRY,SERUM,143.0,mmol/L,143.0,143.0,mmol/L,136,145,Y,6,FOLLOW-UP,FOLLOW-UP,2021-06-01,62
D6470C00005,LB,D6470C00005-0006,49,K,Potassium,CHEMISTRY,SERUM,4.6,mmol/L,4.6,4.6,mmol/L,3.5,5.1,Y,6,FOLLOW-UP,FOLLOW-UP,2021-06-01,62
D6470C00005,LB,D6470C00005-0006,50,CORTISOL,Cortisol,CHEMISTRY,SERUM,372.0,nmol/L,372.0,372.0,nmol/L,138,635,Y,6,FOLLOW-UP,FOLLOW-UP,2021-06-01,62
D6470C00005,LB,D6470C00005-0006,51,HGB,Hemoglobin,HEMATOLOGY,SERUM,157.0,g/L,157.0,157.0,g/L,120,160,N,6,FOLLOW-UP,FOLLOW-UP,2021-06-01,62
D6470C00005,LB,D6470C00005-0006,52,HCT,Hematocrit,HEMATOLOGY,SERUM,0.4,1,0.4,0.4,1,0.36,0.48,N,6,FOLLOW-UP,FOLLOW-UP,2021-06-01,62
D6470C00005,LB,D6470C00005-0007,1,GLUC,Glucose,CHEMISTRY,SERUM,9.7,mmol/L,9.7,9.7,mmol/L,4.1,5.9,Y,1,SCREENING,SCREENING,2021-02-17,-14
D6470C00005,LB,D6470C00005-0007,2,INSULIN,Insulin,CHEMISTRY,SERUM,138.0,pmol/L,138.0,138.0,pmol/L,18,173,Y,1,SCREENING,SCREENING,2021-02-17,-14
D6470C00005,LB,D6470C00005-0007,3,CPEPTIDE,C-Peptide,CHEMISTRY,SERUM,0.95,nmol/L,0.95,0.95,nmol/L,0.37,1.47,Y,1,SCREENING,SCREENING,2021-02-17,-14
D6470C00005,LB,D6470C00005-0007,4,HBA1C,Hemoglobin A1C,CHEMISTRY,SERUM,7.8,%,7.8,7.8,%,4.0,6.0,Y,1,SCREENING,SCREENING,2021-02-17,-14
D6470C00005,LB,D6470C00005-0007,5,CHOL,Cholesterol,CHEMISTRY,SERUM,3.6,mmol/L,3.6,3.6,mmol/L,0,5.2,Y,1,SCREENING,SCREENING,2021-02-17,-14
D6470C00005,LB,D6470C00005-0007,6,TRIG,Triglycerides,CHEMISTRY,SERUM,2.73,mmol/L,2.73,2.73,mmol/L,0,1.7,Y,1,SCREENING,SCREENING,2021-02-17,-14
D6470C00005,LB,D6470C00005-0007,7,HDL,HDL Cholesterol,CHEMISTRY,SERUM,1.38,mmol/L,1.38,1.38,mmol/L,1.0,2.2,Y,1,SCREENING,SCREENING,2021-02-17,-14
D6470C00005,LB,D6470C00005-0007,8,SODIUM,Sodium,CHEMISTRY,SERUM,139.0,mmol/L,139.0,139.0,mmol/L,136,145,Y,1,SCREENING,SCREENING,2021-02-17,-14
D6470C00005,LB,D6470C00005-0007,9,K,Potassium,CHEMISTRY,SERUM,5.1,mmol/L,5.1,5.1,mmol/L,3.5,5.1,Y,1,SCREENING,SCREENING,2021-02-17,-14
D6470C00005,LB,D6470C00005-0007,10,CORTISOL,Cortisol,CHEMISTRY,SERUM,386.0,nmol/L,386.0,386.0,nmol/L,138,635,Y,1,SCREENING,SCREENING,2021-02-17,-14
D6470C00005,LB,D6470C00005-0007,11,HGB,Hemoglobin,HEMATOLOGY,SERUM,151.0,g/L,151.0,151.0,g/L,120,160,N,1,SCREENING,SCREENING,2021-02-17,-14
D6470C00005,LB,D6470C00005-0007,12,HCT,Hematocrit,HEMATOLOGY,SERUM,0.44,1,0.44,0.44,1,0.36,0.48,N,1,SCREENING,SCREENING,2021-02-17,-14
D6470C00005,LB,D6470C00005-0007,13,GLUC,Glucose,CHEMISTRY,SERUM,9.9,mmol/L,9.9,9.9,mmol/L,4.1,5.9,Y,3,DAY 4 (TP1),TREATMENT,2021-03-07,5
D6470C00005,LB,D6470C00005-0007,14,INSULIN,Insulin,CHEMISTRY,SERUM,124.0,pmol/L,124.0,124.0,pmol/L,18,173,Y,3,DAY 4 (TP1),TREATMENT,2021-03-07,5
D6470C00005,LB,D6470C00005-0007,15,CPEPTIDE,C-Peptide,CHEMISTRY,SERUM,1.34,nmol/L,1.34,1.34,nmol/L,0.37,1.47,Y,3,DAY 4 (TP1),TREATMENT,2021-03-07,5
D6470C00005,LB,D6470C00005-0007,16,HBA1C,Hemoglobin A1C,CHEMISTRY,SERUM,7.8,%,7.8,7.8,%,4.0,6.0,Y,3,DAY 4 (TP1),TREATMENT,2021-03-07,5
D6470C00005,LB,D6470C00005-0007,17,CHOL,Cholesterol,CHEMISTRY,SERUM,5.4,mmol/L,5.4,5.4,mmol/L,0,5.2,Y,3,DAY 4 (TP1),TREATMENT,2021-03-07,5
D6470C00005,LB,D6470C00005-0007,18,TRIG,Triglycerides,CHEMISTRY,SERUM,1.94,mmol/L,1.94,1.94,mmol/L,0,1.7,Y,3,DAY 4 (TP1),TREATMENT,2021-03-07,5
D6470C00005,LB,D6470C00005-0007,19,HDL,HDL Cholesterol,CHEMISTRY,SERUM,1.68,mmol/L,1.68,1.68,mmol/L,1.0,2.2,Y,3,DAY 4 (TP1),TREATMENT,2021-03-07,5
D6470C00005,LB,D6470C00005-0007,20,SODIUM,Sodium,CHEMISTRY,SERUM,144.0,mmol/L,144.0,144.0,mmol/L,136,145,Y,3,DAY 4 (TP1),TREATMENT,2021-03-07,5
D6470C00005,LB,D6470C00005-0007,21,K,Potassium,CHEMISTRY,SERUM,4.8,mmol/L,4.8,4.8,mmol/L,3.5,5.1,Y,3,DAY 4 (TP1),TREATMENT,2021-03-07,5
D6470C00005,LB,D6470C00005-0007,22,CORTISOL,Cortisol,CHEMISTRY,SERUM,315.0,nmol/L,315.0,315.0,nmol/L,138,635,Y,3,DAY 4 (TP1),TREATMENT,2021-03-07,5
D6470C00005,LB,D6470C00005-0007,23,HGB,Hemoglobin,HEMATOLOGY,SERUM,164.0,g/L,164.0,164.0,g/L,120,160,N,3,DAY 4 (TP1),TREATMENT,2021-03-07,5
D6470C00005,LB,D6470C00005-0007,24,HCT,Hematocrit,HEMATOLOGY,SERUM,0.39,1,0.39,0.39,1,0.36,0.48,N,3,DAY 4 (TP1),TREATMENT,2021-03-07,5
D6470C00005,LB,D6470C00005-0007,25,K,Potassium,URINALYSIS,URINE,27.0,mmol/L,27.0,27.0,mmol/L,,,N,3,DAY 4 (TP1),TREATMENT,2021-03-07,5
D6470C00005,LB,D6470C00005-0007,26,SODIUM,Sodium,URINALYSIS,URINE,97.0,mmol/L,97.0,97.0,mmol/L,,,N,3,DAY 4 (TP1),TREATMENT,2021-03-07,5
D6470C00005,LB,D6470C00005-0007,27,GLUC,Glucose,CHEMISTRY,SERUM,8.5,mmol/L,8.5,8.5,mmol/L,4.1,5.9,Y,5,DAY 31 (TP2),TREATMENT,2021-04-03,32
D6470C00005,LB,D6470C00005-0007,28,INSULIN,Insulin,CHEMISTRY,SERUM,139.0,pmol/L,139.0,139.0,pmol/L,18,173,Y,5,DAY 31 (TP2),TREATMENT,2021-04-03,32
D6470C00005,LB,D6470C00005-0007,29,CPEPTIDE,C-Peptide,CHEMISTRY,SERUM,0.89,nmol/L,0.89,0.89,nmol/L,0.37,1.47,Y,5,DAY 31 (TP2),TREATMENT,2021-04-03,32
D6470C00005,LB,D6470C00005-0007,30,HBA1C,Hemoglobin A1C,CHEMISTRY,SERUM,8.9,%,8.9,8.9,%,4.0,6.0,Y,5,DAY 31 (TP2),TREATMENT,2021-04-03,32
D6470C00005,LB,D6470C00005-0007,31,CHOL,Cholesterol,CHEMISTRY,SERUM,6.3,mmol/L,6.3,6.3,mmol/L,0,5.2,Y,5,DAY 31 (TP2),TREATMENT,2021-04-03,32
D6470C00005,LB,D6470C00005-0007,32,TRIG,Triglycerides,CHEMISTRY,SERUM,0.85,mmol/L,0.85,0.85,mmol/L,0,1.7,Y,5,DAY 31 (TP2),TREATMENT,2021-04-03,32
D6470C00005,LB,D6470C00005-0007,33,HDL,HDL Cholesterol,CHEMISTRY,SERUM,1.11,mmol/L,1.11,1.11,mmol/L,1.0,2.2,Y,5,DAY 31 (TP2),TREATMENT,2021-04-03,32
D6470C00005,LB,D6470C00005-0007,34,SODIUM,Sodium,CHEMISTRY,SERUM,140.0,mmol/L,140.0,140.0,mmol/L,136,145,Y,5,DAY 31 (TP2),TREATMENT,2021-04-03,32
D6470C00005,LB,D6470C00005-0007,35,K,Potassium,CHEMISTRY,SERUM,4.2,mmol/L,4.2,4.2,mmol/L,3.5,5.1,Y,5,DAY 31 (TP2),TREATMENT,2021-04-03,32
D6470C00005,LB,D6470C00005-0007,36,CORTISOL,Cortisol,CHEMISTRY,SERUM,396.0,nmol/L,396.0,396.0,nmol/L,138,635,Y,5,DAY 31 (TP2),TREATMENT,2021-04-03,32
D6470C00005,LB,D6470C00005-0007,37,HGB,Hemoglobin,HEMATOLOGY,SERUM,149.0,g/L,149.0,149.0,g/L,120,160,N,5,DAY 31 (TP2),TREATMENT,2021-04-03,32
D6470C00005,LB,D6470C00005-0007,38,HCT,Hematocrit,HEMATOLOGY,SERUM,0.46,1,0.46,0.46,1,0.36,0.48,N,5,DAY 31 (TP2),TREATMENT,2021-04-03,32
D6470C00005,LB,D6470C00005-0007,39,K,Potassium,URINALYSIS,URINE,32.0,mmol/L,32.0,32.0,mmol/L,,,N,5,DAY 31 (TP2),TREATMENT,2021-04-03,32
D6470C00005,LB,D6470C00005-0007,40,SODIUM,Sodium,URINALYSIS,URINE,216.0,mmol/L,216.0,216.0,mmol/L,,,N,5,DAY 31 (TP2),TREATMENT,2021-04-03,32
D6470C00005,LB,D6470C00005-0007,41,GLUC,Glucose,CHEMISTRY,SERUM,6.7,mmol/L,6.7,6.7,mmol/L,4.1,5.9,Y,6,FOLLOW-UP,FOLLOW-UP,2021-05-03,62
D6470C00005,LB,D6470C00005-0007,42,INSULIN,Insulin,CHEMISTRY,SERUM,123.0,pmol/L,123.0,123.0,pmol/L,18,173,Y,6,FOLLOW-UP,FOLLOW-UP,2021-05-03,62
D6470C00005,LB,D6470C00005-0007,43,CPEPTIDE,C-Peptide,CHEMISTRY,SERUM,1.04,nmol/L,1.04,1.04,nmol/L,0.37,1.47,Y,6,FOLLOW-UP,FOLLOW-UP,2021-05-03,62
D6470C00005,LB,D6470C00005-0007,44,HBA1C,Hemoglobin A1C,CHEMISTRY,SERUM,7.9,%,7.9,7.9,%,4.0,6.0,Y,6,FOLLOW-UP,FOLLOW-UP,2021-05-03,62
D6470C00005,LB,D6470C00005-0007,45,CHOL,Cholesterol,CHEMISTRY,SERUM,6.7,mmol/L,6.7,6.7,mmol/L,0,5.2,Y,6,FOLLOW-UP,FOLLOW-UP,2021-05-03,62
D6470C00005,LB,D6470C00005-0007,46,TRIG,Triglycerides,CHEMISTRY,SERUM,1.16,mmol/L,1.16,1.16,mmol/L,0,1.7,Y,6,FOLLOW-UP,FOLLOW-UP,2021-05-03,62
D6470C00005,LB,D6470C00005-0007,47,HDL,HDL Cholesterol,CHEMISTRY,SERUM,1.66,mmol/L,1.66,1.66,mmol/L,1.0,2.2,Y,6,FOLLOW-UP,FOLLOW-UP,2021-05-03,62
D6470C00005,LB,D6470C00005-0007,48,SODIUM,Sodium,CHEMISTRY,SERUM,135.0,mmol/L,135.0,135.0,mmol/L,136,145,Y,6,FOLLOW-UP,FOLLOW-UP,2021-05-03,62
D6470C00005,LB,D6470C00005-0007,49,K,Potassium,CHEMISTRY,SERUM,4.8,mmol/L,4.8,4.8,mmol/L,3.5,5.1,Y,6,FOLLOW-UP,FOLLOW-UP,2021-05-03,62
D6470C00005,LB,D6470C00005-0007,50,CORTISOL,Cortisol,CHEMISTRY,SERUM,349.0,nmol/L,349.0,349.0,nmol/L,138,635,Y,6,FOLLOW-UP,FOLLOW-UP,2021-05-03,62
D6470C00005,LB,D6470C00005-0007,51,HGB,Hemoglobin,HEMATOLOGY,SERUM,142.0,g/L,142.0,142.0,g/L,120,160,N,6,FOLLOW-UP,FOLLOW-UP,2021-05-03,62
D6470C00005,LB,D6470C00005-0007,52,HCT,Hematocrit,HEMATOLOGY,SERUM,0.38,1,0.38,0.38,1,0.36,0.48,N,6,FOLLOW-UP,FOLLOW-UP,2021-05-03,62
D6470C00005,LB,D6470C00005-0008,1,GLUC,Glucose,CHEMISTRY,SERUM,9.7,mmol/L,9.7,9.7,mmol/L,4.1,5.9,Y,1,SCREENING,SCREENING,2020-12-10,-14
D6470C00005,LB,D6470C00005-0008,2,INSULIN,Insulin,CHEMISTRY,SERUM,104.0,pmol/L,104.0,104.0,pmol/L,18,173,Y,1,SCREENING,SCREENING,2020-12-10,-14
D6470C00005,LB,D6470C00005-0008,3,CPEPTIDE,C-Peptide,CHEMISTRY,SERUM,1.21,nmol/L,1.21,1.21,nmol/L,0.37,1.47,Y,1,SCREENING,SCREENING,2020-12-10,-14
D6470C00005,LB,D6470C00005-0008,4,HBA1C,Hemoglobin A1C,CHEMISTRY,SERUM,8.1,%,8.1,8.1,%,4.0,6.0,Y,1,SCREENING,SCREENING,2020-12-10,-14
D6470C00005,LB,D6470C00005-0008,5,CHOL,Cholesterol,CHEMISTRY,SERUM,5.0,mmol/L,5.0,5.0,mmol/L,0,5.2,Y,1,SCREENING,SCREENING,2020-12-10,-14
D6470C00005,LB,D6470C00005-0008,6,TRIG,Triglycerides,CHEMISTRY,SERUM,1.52,mmol/L,1.52,1.52,mmol/L,0,1.7,Y,1,SCREENING,SCREENING,2020-12-10,-14
D6470C00005,LB,D6470C00005-0008,7,HDL,HDL Cholesterol,CHEMISTRY,SERUM,1.3,mmol/L,1.3,1.3,mmol/L,1.0,2.2,Y,1,SCREENING,SCREENING,2020-12-10,-14
D6470C00005,LB,D6470C00005-0008,8,SODIUM,Sodium,CHEMISTRY,SERUM,140.0,mmol/L,140.0,140.0,mmol/L,136,145,Y,1,SCREENING,SCREENING,2020-12-10,-14
D6470C00005,LB,D6470C00005-0008,9,K,Potassium,CHEMISTRY,SERUM,3.7,mmol/L,3.7,3.7,mmol/L,3.5,5.1,Y,1,SCREENING,SCREENING,2020-12-10,-14
D6470C00005,LB,D6470C00005-0008,10,CORTISOL,Cortisol,CHEMISTRY,SERUM,408.0,nmol/L,408.0,408.0,nmol/L,138,635,Y,1,SCREENING,SCREENING,2020-12-10,-14
D6470C00005,LB,D6470C00005-0008,11,HGB,Hemoglobin,HEMATOLOGY,SERUM,136.0,g/L,136.0,136.0,g/L,120,160,N,1,SCREENING,SCREENING,2020-12-10,-14
D6470C00005,LB,D6470C00005-0008,12,HCT,Hematocrit,HEMATOLOGY,SERUM,0.48,1,0.48,0.48,1,0.36,0.48,N,1,SCREENING,SCREENING,2020-12-10,-14
D6470C00005,LB,D6470C00005-0008,13,GLUC,Glucose,CHEMISTRY,SERUM,11.7,mmol/L,11.7,11.7,mmol/L,4.1,5.9,Y,3,DAY 4 (TP1),TREATMENT,2020-12-28,5
D6470C00005,LB,D6470C00005-0008,14,INSULIN,Insulin,CHEMISTRY,SERUM,49.0,pmol/L,49.0,49.0,pmol/L,18,173,Y,3,DAY 4 (TP1),TREATMENT,2020-12-28,5
D6470C00005,LB,D6470C00005-0008,15,CPEPTIDE,C-Peptide,CHEMISTRY,SERUM,0.85,nmol/L,0.85,0.85,nmol/L,0.37,1.47,Y,3,DAY 4 (TP1),TREATMENT,2020-12-28,5
D6470C00005,LB,D6470C00005-0008,16,HBA1C,Hemoglobin A1C,CHEMISTRY,SERUM,8.3,%,8.3,8.3,%,4.0,6.0,Y,3,DAY 4 (TP1),TREATMENT,2020-12-28,5
D6470C00005,LB,D6470C00005-0008,17,CHOL,Cholesterol,CHEMISTRY,SERUM,5.3,mmol/L,5.3,5.3,mmol/L,0,5.2,Y,3,DAY 4 (TP1),TREATMENT,2020-12-28,5
D6470C00005,LB,D6470C00005-0008,18,TRIG,Triglycerides,CHEMISTRY,SERUM,3.11,mmol/L,3.11,3.11,mmol/L,0,1.7,Y,3,DAY 4 (TP1),TREATMENT,2020-12-28,5
D6470C00005,LB,D6470C00005-0008,19,HDL,HDL Cholesterol,CHEMISTRY,SERUM,1.74,mmol/L,1.74,1.74,mmol/L,1.0,2.2,Y,3,DAY 4 (TP1),TREATMENT,2020-12-28,5
D6470C00005,LB,D6470C00005-0008,20,SODIUM,Sodium,CHEMISTRY,SERUM,140.0,mmol/L,140.0,140.0,mmol/L,136,145,Y,3,DAY 4 (TP1),TREATMENT,2020-12-28,5
D6470C00005,LB,D6470C00005-0008,21,K,Potassium,CHEMISTRY,SERUM,4.1,mmol/L,4.1,4.1,mmol/L,3.5,5.1,Y,3,DAY 4 (TP1),TREATMENT,2020-12-28,5
D6470C00005,LB,D6470C00005-0008,22,CORTISOL,Cortisol,CHEMISTRY,SERUM,294.0,nmol/L,294.0,294.0,nmol/L,138,635,Y,3,DAY 4 (TP1),TREATMENT,2020-12-28,5
D6470C00005,LB,D6470C00005-0008,23,HGB,Hemoglobin,HEMATOLOGY,SERUM,143.0,g/L,143.0,143.0,g/L,120,160,N,3,DAY 4 (TP1),TREATMENT,2020-12-28,5
D6470C00005,LB,D6470C00005-0008,24,HCT,Hematocrit,HEMATOLOGY,SERUM,0.45,1,0.45,0.45,1,0.36,0.48,N,3,DAY 4 (TP1),TREATMENT,2020-12-28,5
D6470C00005,LB,D6470C00005-0008,25,K,Potassium,URINALYSIS,URINE,69.0,mmol/L,69.0,69.0,mmol/L,,,N,3,DAY 4 (TP1),TREATMENT,2020-12-28,5
D6470C00005,LB,D6470C00005-0008,26,SODIUM,Sodium,URINALYSIS,URINE,133.0,mmol/L,133.0,133.0,mmol/L,,,N,3,DAY 4 (TP1),TREATMENT,2020-12-28,5
D6470C00005,LB,D6470C00005-0008,27,GLUC,Glucose,CHEMISTRY,SERUM,9.8,mmol/L,9.8,9.8,mmol/L,4.1,5.9,Y,5,DAY 31 (TP2),TREATMENT,2021-01-24,32
D6470C00005,LB,D6470C00005-0008,28,INSULIN,Insulin,CHEMISTRY,SERUM,96.0,pmol/L,96.0,96.0,pmol/L,18,173,Y,5,DAY 31 (TP2),TREATMENT,2021-01-24,32
D6470C00005,LB,D6470C00005-0008,29,CPEPTIDE,C-Peptide,CHEMISTRY,SERUM,0.86,nmol/L,0.86,0.86,nmol/L,0.37,1.47,Y,5,DAY 31 (TP2),TREATMENT,2021-01-24,32
D6470C00005,LB,D6470C00005-0008,30,HBA1C,Hemoglobin A1C,CHEMISTRY,SERUM,7.3,%,7.3,7.3,%,4.0,6.0,Y,5,DAY 31 (TP2),TREATMENT,2021-01-24,32
D6470C00005,LB,D6470C00005-0008,31,CHOL,Cholesterol,CHEMISTRY,SERUM,6.5,mmol/L,6.5,6.5,mmol/L,0,5.2,Y,5,DAY 31 (TP2),TREATMENT,2021-01-24,32
D6470C00005,LB,D6470C00005-0008,32,TRIG,Triglycerides,CHEMISTRY,SERUM,2.41,mmol/L,2.41,2.41,mmol/L,0,1.7,Y,5,DAY 31 (TP2),TREATMENT,2021-01-24,32
D6470C00005,LB,D6470C00005-0008,33,HDL,HDL Cholesterol,CHEMISTRY,SERUM,0.9,mmol/L,0.9,0.9,mmol/L,1.0,2.2,Y,5,DAY 31 (TP2),TREATMENT,2021-01-24,32
D6470C00005,LB,D6470C00005-0008,34,SODIUM,Sodium,CHEMISTRY,SERUM,135.0,mmol/L,135.0,135.0,mmol/L,136,145,Y,5,DAY 31 (TP2),TREATMENT,2021-01-24,32
D6470C00005,LB,D6470C00005-0008,35,K,Potassium,CHEMISTRY,SERUM,5.0,mmol/L,5.0,5.0,mmol/L,3.5,5.1,Y,5,DAY 31 (TP2),TREATMENT,2021-01-24,32
D6470C00005,LB,D6470C00005-0008,36,CORTISOL,Cortisol,CHEMISTRY,SERUM,351.0,nmol/L,351.0,351.0,nmol/L,138,635,Y,5,DAY 31 (TP2),TREATMENT,2021-01-24,32
D6470C00005,LB,D6470C00005-0008,37,HGB,Hemoglobin,HEMATOLOGY,SERUM,146.0,g/L,146.0,146.0,g/L,120,160,N,5,DAY 31 (TP2),TREATMENT,2021-01-24,32
D6470C00005,LB,D6470C00005-0008,38,HCT,Hematocrit,HEMATOLOGY,SERUM,0.41,1,0.41,0.41,1,0.36,0.48,N,5,DAY 31 (TP2),TREATMENT,2021-01-24,32
D6470C00005,LB,D6470C00005-0008,39,K,Potassium,URINALYSIS,URINE,31.0,mmol/L,31.0,31.0,mmol/L,,,N,5,DAY 31 (TP2),TREATMENT,2021-01-24,32
D6470C00005,LB,D6470C00005-0008,40,SODIUM,Sodium,URINALYSIS,URINE,126.0,mmol/L,126.0,126.0,mmol/L,,,N,5,DAY 31 (TP2),TREATMENT,2021-01-24,32
D6470C00005,LB,D6470C00005-0008,41,GLUC,Glucose,CHEMISTRY,SERUM,9.7,mmol/L,9.7,9.7,mmol/L,4.1,5.9,Y,6,FOLLOW-UP,FOLLOW-UP,2021-02-23,62
D6470C00005,LB,D6470C00005-0008,42,INSULIN,Insulin,CHEMISTRY,SERUM,159.0,pmol/L,159.0,159.0,pmol/L,18,173,Y,6,FOLLOW-UP,FOLLOW-UP,2021-02-23,62
D6470C00005,LB,D6470C00005-0008,43,CPEPTIDE,C-Peptide,CHEMISTRY,SERUM,0.59,nmol/L,0.59,0.59,nmol/L,0.37,1.47,Y,6,FOLLOW-UP,FOLLOW-UP,2021-02-23,62
D6470C00005,LB,D6470C00005-0008,44,HBA1C,Hemoglobin A1C,CHEMISTRY,SERUM,6.7,%,6.7,6.7,%,4.0,6.0,Y,6,FOLLOW-UP,FOLLOW-UP,2021-02-23,62
D6470C00005,LB,D6470C00005-0008,45,CHOL,Cholesterol,CHEMISTRY,SERUM,6.3,mmol/L,6.3,6.3,mmol/L,0,5.2,Y,6,FOLLOW-UP,FOLLOW-UP,2021-02-23,62
D6470C00005,LB,D6470C00005-0008,46,TRIG,Triglycerides,CHEMISTRY,SERUM,3.05,mmol/L,3.05,3.05,mmol/L,0,1.7,Y,6,FOLLOW-UP,FOLLOW-UP,2021-02-23,62
D6470C00005,LB,D6470C00005-0008,47,HDL,HDL Cholesterol,CHEMISTRY,SERUM,1.29,mmol/L,1.29,1.29,mmol/L,1.0,2.2,Y,6,FOLLOW-UP,FOLLOW-UP,2021-02-23,62
D6470C00005,LB,D6470C00005-0008,48,SODIUM,Sodium,CHEMISTRY,SERUM,143.0,mmol/L,143.0,143.0,mmol/L,136,145,Y,6,FOLLOW-UP,FOLLOW-UP,2021-02-23,62
D6470C00005,LB,D6470C00005-0008,49,K,Potassium,CHEMISTRY,SERUM,4.9,mmol/L,4.9,4.9,mmol/L,3.5,5.1,Y,6,FOLLOW-UP,FOLLOW-UP,2021-02-23,62
D6470C00005,LB,D6470C00005-0008,50,CORTISOL,Cortisol,CHEMISTRY,SERUM,271.0,nmol/L,271.0,271.0,nmol/L,138,635,Y,6,FOLLOW-UP,FOLLOW-UP,2021-02-23,62
D6470C00005,LB,D6470C00005-0008,51,HGB,Hemoglobin,HEMATOLOGY,SERUM,147.0,g/L,147.0,147.0,g/L,120,160,N,6,FOLLOW-UP,FOLLOW-UP,2021-02-23,62
D6470C00005,LB,D6470C00005-0008,52,HCT,Hematocrit,HEMATOLOGY,SERUM,0.44,1,0.44,0.44,1,0.36,0.48,N,6,FOLLOW-UP,FOLLOW-UP,2021-02-23,62
D6470C00005,LB,D6470C00005-0009,1,GLUC,Glucose,CHEMISTRY,SERUM,7.9,mmol/L,7.9,7.9,mmol/L,4.1,5.9,Y,1,SCREENING,SCREENING,2021-01-16,-14
D6470C00005,LB,D6470C00005-0009,2,INSULIN,Insulin,CHEMISTRY,SERUM,74.0,pmol/L,74.0,74.0,pmol/L,18,173,Y,1,SCREENING,SCREENING,2021-01-16,-14
D6470C00005,LB,D6470C00005-0009,3,CPEPTIDE,C-Peptide,CHEMISTRY,SERUM,1.1,nmol/L,1.1,1.1,nmol/L,0.37,1.47,Y,1,SCREENING,SCREENING,2021-01-16,-14
D6470C00005,LB,D6470C00005-0009,4,HBA1C,Hemoglobin A1C,CHEMISTRY,SERUM,7.6,%,7.6,7.6,%,4.0,6.0,Y,1,SCREENING,SCREENING,2021-01-16,-14
D6470C00005,LB,D6470C00005-0009,5,CHOL,Cholesterol,CHEMISTRY,SERUM,6.6,mmol/L,6.6,6.6,mmol/L,0,5.2,Y,1,SCREENING,SCREENING,2021-01-16,-14
D6470C00005,LB,D6470C00005-0009,6,TRIG,Triglycerides,CHEMISTRY,SERUM,2.14,mmol/L,2.14,2.14,mmol/L,0,1.7,Y,1,SCREENING,SCREENING,2021-01-16,-14
D6470C00005,LB,D6470C00005-0009,7,HDL,HDL Cholesterol,CHEMISTRY,SERUM,1.05,mmol/L,1.05,1.05,mmol/L,1.0,2.2,Y,1,SCREENING,SCREENING,2021-01-16,-14
D6470C00005,LB,D6470C00005-0009,8,SODIUM,Sodium,CHEMISTRY,SERUM,141.0,mmol/L,141.0,141.0,mmol/L,136,145,Y,1,SCREENING,SCREENING,2021-01-16,-14
D6470C00005,LB,D6470C00005-0009,9,K,Potassium,CHEMISTRY,SERUM,4.4,mmol/L,4.4,4.4,mmol/L,3.5,5.1,Y,1,SCREENING,SCREENING,2021-01-16,-14
D6470C00005,LB,D6470C00005-0009,10,CORTISOL,Cortisol,CHEMISTRY,SERUM,519.0,nmol/L,519.0,519.0,nmol/L,138,635,Y,1,SCREENING,SCREENING,2021-01-16,-14
D6470C00005,LB,D6470C00005-0009,11,HGB,Hemoglobin,HEMATOLOGY,SERUM,130.0,g/L,130.0,130.0,g/L,120,160,N,1,SCREENING,SCREENING,2021-01-16,-14
D6470C00005,LB,D6470C00005-0009,12,HCT,Hematocrit,HEMATOLOGY,SERUM,0.5,1,0.5,0.5,1,0.36,0.48,N,1,SCREENING,SCREENING,2021-01-16,-14
D6470C00005,LB,D6470C00005-0009,13,GLUC,Glucose,CHEMISTRY,SERUM,9.9,mmol/L,9.9,9.9,mmol/L,4.1,5.9,Y,3,DAY 4 (TP1),TREATMENT,2021-02-03,5
D6470C00005,LB,D6470C00005-0009,14,INSULIN,Insulin,CHEMISTRY,SERUM,58.0,pmol/L,58.0,58.0,pmol/L,18,173,Y,3,DAY 4 (TP1),TREATMENT,2021-02-03,5
D6470C00005,LB,D6470C00005-0009,15,CPEPTIDE,C-Peptide,CHEMISTRY,SERUM,1.09,nmol/L,1.09,1.09,nmol/L,0.37,1.47,Y,3,DAY 4 (TP1),TREATMENT,2021-02-03,5
D6470C00005,LB,D6470C00005-0009,16,HBA1C,Hemoglobin A1C,CHEMISTRY,SERUM,7.8,%,7.8,7.8,%,4.0,6.0,Y,3,DAY 4 (TP1),TREATMENT,2021-02-03,5
D6470C00005,LB,D6470C00005-0009,17,CHOL,Cholesterol,CHEMISTRY,SERUM,5.7,mmol/L,5.7,5.7,mmol/L,0,5.2,Y,3,DAY 4 (TP1),TREATMENT,2021-02-03,5
D6470C00005,LB,D6470C00005-0009,18,TRIG,Triglycerides,CHEMISTRY,SERUM,1.71,mmol/L,1.71,1.71,mmol/L,0,1.7,Y,3,DAY 4 (TP1),TREATMENT,2021-02-03,5
D6470C00005,LB,D6470C00005-0009,19,HDL,HDL Cholesterol,CHEMISTRY,SERUM,1.33,mmol/L,1.33,1.33,mmol/L,1.0,2.2,Y,3,DAY 4 (TP1),TREATMENT,2021-02-03,5
D6470C00005,LB,D6470C00005-0009,20,SODIUM,Sodium,CHEMISTRY,SERUM,136.0,mmol/L,136.0,136.0,mmol/L,136,145,Y,3,DAY 4 (TP1),TREATMENT,2021-02-03,5
D6470C00005,LB,D6470C00005-0009,21,K,Potassium,CHEMISTRY,SERUM,4.0,mmol/L,4.0,4.0,mmol/L,3.5,5.1,Y,3,DAY 4 (TP1),TREATMENT,2021-02-03,5
D6470C00005,LB,D6470C00005-0009,22,CORTISOL,Cortisol,CHEMISTRY,SERUM,371.0,nmol/L,371.0,371.0,nmol/L,138,635,Y,3,DAY 4 (TP1),TREATMENT,2021-02-03,5
D6470C00005,LB,D6470C00005-0009,23,HGB,Hemoglobin,HEMATOLOGY,SERUM,136.0,g/L,136.0,136.0,g/L,120,160,N,3,DAY 4 (TP1),TREATMENT,2021-02-03,5
D6470C00005,LB,D6470C00005-0009,24,HCT,Hematocrit,HEMATOLOGY,SERUM,0.41,1,0.41,0.41,1,0.36,0.48,N,3,DAY 4 (TP1),TREATMENT,2021-02-03,5
D6470C00005,LB,D6470C00005-0009,25,K,Potassium,URINALYSIS,URINE,64.0,mmol/L,64.0,64.0,mmol/L,,,N,3,DAY 4 (TP1),TREATMENT,2021-02-03,5
D6470C00005,LB,D6470C00005-0009,26,SODIUM,Sodium,URINALYSIS,URINE,88.0,mmol/L,88.0,88.0,mmol/L,,,N,3,DAY 4 (TP1),TREATMENT,2021-02-03,5
D6470C00005,LB,D6470C00005-0009,27,GLUC,Glucose,CHEMISTRY,SERUM,11.5,mmol/L,11.5,11.5,mmol/L,4.1,5.9,Y,5,DAY 31 (TP2),TREATMENT,2021-03-02,32
D6470C00005,LB,D6470C00005-0009,28,INSULIN,Insulin,CHEMISTRY,SERUM,75.0,pmol/L,75.0,75.0,pmol/L,18,173,Y,5,DAY 31 (TP2),TREATMENT,2021-03-02,32
D6470C00005,LB,D6470C00005-0009,29,CPEPTIDE,C-Peptide,CHEMISTRY,SERUM,1.03,nmol/L,1.03,1.03,nmol/L,0.37,1.47,Y,5,DAY 31 (TP2),TREATMENT,2021-03-02,32
D6470C00005,LB,D6470C00005-0009,30,HBA1C,Hemoglobin A1C,CHEMISTRY,SERUM,7.2,%,7.2,7.2,%,4.0,6.0,Y,5,DAY 31 (TP2),TREATMENT,2021-03-02,32
D6470C00005,LB,D6470C00005-0009,31,CHOL,Cholesterol,CHEMISTRY,SERUM,3.9,mmol/L,3.9,3.9,mmol/L,0,5.2,Y,5,DAY 31 (TP2),TREATMENT,2021-03-02,32
D6470C00005,LB,D6470C00005-0009,32,TRIG,Triglycerides,CHEMISTRY,SERUM,2.85,mmol/L,2.85,2.85,mmol/L,0,1.7,Y,5,DAY 31 (TP2),TREATMENT,2021-03-02,32
D6470C00005,LB,D6470C00005-0009,33,HDL,HDL Cholesterol,CHEMISTRY,SERUM,1.69,mmol/L,1.69,1.69,mmol/L,1.0,2.2,Y,5,DAY 31 (TP2),TREATMENT,2021-03-02,32
D6470C00005,LB,D6470C00005-0009,34,SODIUM,Sodium,CHEMISTRY,SERUM,138.0,mmol/L,138.0,138.0,mmol/L,136,145,Y,5,DAY 31 (TP2),TREATMENT,2021-03-02,32
D6470C00005,LB,D6470C00005-0009,35,K,Potassium,CHEMISTRY,SERUM,4.8,mmol/L,4.8,4.8,mmol/L,3.5,5.1,Y,5,DAY 31 (TP2),TREATMENT,2021-03-02,32
D6470C00005,LB,D6470C00005-0009,36,CORTISOL,Cortisol,CHEMISTRY,SERUM,383.0,nmol/L,383.0,383.0,nmol/L,138,635,Y,5,DAY 31 (TP2),TREATMENT,2021-03-02,32
D6470C00005,LB,D6470C00005-0009,37,HGB,Hemoglobin,HEMATOLOGY,SERUM,145.0,g/L,145.0,145.0,g/L,120,160,N,5,DAY 31 (TP2),TREATMENT,2021-03-02,32
D6470C00005,LB,D6470C00005-0009,38,HCT,Hematocrit,HEMATOLOGY,SERUM,0.47,1,0.47,0.47,1,0.36,0.48,N,5,DAY 31 (TP2),TREATMENT,2021-03-02,32
D6470C00005,LB,D6470C00005-0009,39,K,Potassium,URINALYSIS,URINE,57.0,mmol/L,57.0,57.0,mmol/L,,,N,5,DAY 31 (TP2),TREATMENT,2021-03-02,32
D6470C00005,LB,D6470C00005-0009,40,SODIUM,Sodium,URINALYSIS,URINE,133.0,mmol/L,133.0,133.0,mmol/L,,,N,5,DAY 31 (TP2),TREATMENT,2021-03-02,32
D6470C00005,LB,D6470C00005-0009,41,GLUC,Glucose,CHEMISTRY,SERUM,7.3,mmol/L,7.3,7.3,mmol/L,4.1,5.9,Y,6,FOLLOW-UP,FOLLOW-UP,2021-04-01,62
D6470C00005,LB,D6470C00005-0009,42,INSULIN,Insulin,CHEMISTRY,SERUM,64.0,pmol/L,64.0,64.0,pmol/L,18,173,Y,6,FOLLOW-UP,FOLLOW-UP,2021-04-01,62
D6470C00005,LB,D6470C00005-0009,43,CPEPTIDE,C-Peptide,CHEMISTRY,SERUM,0.65,nmol/L,0.65,0.65,nmol/L,0.37,1.47,Y,6,FOLLOW-UP,FOLLOW-UP,2021-04-01,62
D6470C00005,LB,D6470C00005-0009,44,HBA1C,Hemoglobin A1C,CHEMISTRY,SERUM,6.6,%,6.6,6.6,%,4.0,6.0,Y,6,FOLLOW-UP,FOLLOW-UP,2021-04-01,62
D6470C00005,LB,D6470C00005-0009,45,CHOL,Cholesterol,CHEMISTRY,SERUM,4.5,mmol/L,4.5,4.5,mmol/L,0,5.2,Y,6,FOLLOW-UP,FOLLOW-UP,2021-04-01,62
D6470C00005,LB,D6470C00005-0009,46,TRIG,Triglycerides,CHEMISTRY,SERUM,0.86,mmol/L,0.86,0.86,mmol/L,0,1.7,Y,6,FOLLOW-UP,FOLLOW-UP,2021-04-01,62
D6470C00005,LB,D6470C00005-0009,47,HDL,HDL Cholesterol,CHEMISTRY,SERUM,1.37,mmol/L,1.37,1.37,mmol/L,1.0,2.2,Y,6,FOLLOW-UP,FOLLOW-UP,2021-04-01,62
D6470C00005,LB,D6470C00005-0009,48,SODIUM,Sodium,CHEMISTRY,SERUM,144.0,mmol/L,144.0,144.0,mmol/L,136,145,Y,6,FOLLOW-UP,FOLLOW-UP,2021-04-01,62
D6470C00005,LB,D6470C00005-0009,49,K,Potassium,CHEMISTRY,SERUM,4.0,mmol/L,4.0,4.0,mmol/L,3.5,5.1,Y,6,FOLLOW-UP,FOLLOW-UP,2021-04-01,62
D6470C00005,LB,D6470C00005-0009,50,CORTISOL,Cortisol,CHEMISTRY,SERUM,392.0,nmol/L,392.0,392.0,nmol/L,138,635,Y,6,FOLLOW-UP,FOLLOW-UP,2021-04-01,62
D6470C00005,LB,D6470C00005-0009,51,HGB,Hemoglobin,HEMATOLOGY,SERUM,150.0,g/L,150.0,150.0,g/L,120,160,N,6,FOLLOW-UP,FOLLOW-UP,2021-04-01,62
D6470C00005,LB,D6470C00005-0009,52,HCT,Hematocrit,HEMATOLOGY,SERUM,0.41,1,0.41,0.41,1,0.36,0.48,N,6,FOLLOW-UP,FOLLOW-UP,2021-04-01,62
D6470C00005,LB,D6470C00005-0010,1,GLUC,Glucose,CHEMISTRY,SERUM,11.4,mmol/L,11.4,11.4,mmol/L,4.1,5.9,Y,1,SCREENING,SCREENING,2021-03-04,-14
D6470C00005,LB,D6470C00005-0010,2,INSULIN,Insulin,CHEMISTRY,SERUM,159.0,pmol/L,159.0,159.0,pmol/L,18,173,Y,1,SCREENING,SCREENING,2021-03-04,-14
D6470C00005,LB,D6470C00005-0010,3,CPEPTIDE,C-Peptide,CHEMISTRY,SERUM,0.84,nmol/L,0.84,0.84,nmol/L,0.37,1.47,Y,1,SCREENING,SCREENING,2021-03-04,-14
D6470C00005,LB,D6470C00005-0010,4,HBA1C,Hemoglobin A1C,CHEMISTRY,SERUM,7.5,%,7.5,7.5,%,4.0,6.0,Y,1,SCREENING,SCREENING,2021-03-04,-14
D6470C00005,LB,D6470C00005-0010,5,CHOL,Cholesterol,CHEMISTRY,SERUM,3.9,mmol/L,3.9,3.9,mmol/L,0,5.2,Y,1,SCREENING,SCREENING,2021-03-04,-14
D6470C00005,LB,D6470C00005-0010,6,TRIG,Triglycerides,CHEMISTRY,SERUM,1.35,mmol/L,1.35,1.35,mmol/L,0,1.7,Y,1,SCREENING,SCREENING,2021-03-04,-14
D6470C00005,LB,D6470C00005-0010,7,HDL,HDL Cholesterol,CHEMISTRY,SERUM,1.27,mmol/L,1.27,1.27,mmol/L,1.0,2.2,Y,1,SCREENING,SCREENING,2021-03-04,-14
D6470C00005,LB,D6470C00005-0010,8,SODIUM,Sodium,CHEMISTRY,SERUM,143.0,mmol/L,143.0,143.0,mmol/L,136,145,Y,1,SCREENING,SCREENING,2021-03-04,-14
D6470C00005,LB,D6470C00005-0010,9,K,Potassium,CHEMISTRY,SERUM,3.8,mmol/L,3.8,3.8,mmol/L,3.5,5.1,Y,1,SCREENING,SCREENING,2021-03-04,-14
D6470C00005,LB,D6470C00005-0010,10,CORTISOL,Cortisol,CHEMISTRY,SERUM,162.0,nmol/L,162.0,162.0,nmol/L,138,635,Y,1,SCREENING,SCREENING,2021-03-04,-14
D6470C00005,LB,D6470C00005-0010,11,HGB,Hemoglobin,HEMATOLOGY,SERUM,157.0,g/L,157.0,157.0,g/L,120,160,N,1,SCREENING,SCREENING,2021-03-04,-14
D6470C00005,LB,D6470C00005-0010,12,HCT,Hematocrit,HEMATOLOGY,SERUM,0.44,1,0.44,0.44,1,0.36,0.48,N,1,SCREENING,SCREENING,2021-03-04,-14
D6470C00005,LB,D6470C00005-0010,13,GLUC,Glucose,CHEMISTRY,SERUM,10.7,mmol/L,10.7,10.7,mmol/L,4.1,5.9,Y,3,DAY 4 (TP1),TREATMENT,2021-03-22,5
D6470C00005,LB,D6470C00005-0010,14,INSULIN,Insulin,CHEMISTRY,SERUM,92.0,pmol/L,92.0,92.0,pmol/L,18,173,Y,3,DAY 4 (TP1),TREATMENT,2021-03-22,5
D6470C00005,LB,D6470C00005-0010,15,CPEPTIDE,C-Peptide,CHEMISTRY,SERUM,0.51,nmol/L,0.51,0.51,nmol/L,0.37,1.47,Y,3,DAY 4 (TP1),TREATMENT,2021-03-22,5
D6470C00005,LB,D6470C00005-0010,16,HBA1C,Hemoglobin A1C,CHEMISTRY,SERUM,6.8,%,6.8,6.8,%,4.0,6.0,Y,3,DAY 4 (TP1),TREATMENT,2021-03-22,5
D6470C00005,LB,D6470C00005-0010,17,CHOL,Cholesterol,CHEMISTRY,SERUM,3.8,mmol/L,3.8,3.8,mmol/L,0,5.2,Y,3,DAY 4 (TP1),TREATMENT,2021-03-22,5
D6470C00005,LB,D6470C00005-0010,18,TRIG,Triglycerides,CHEMISTRY,SERUM,2.56,mmol/L,2.56,2.56,mmol/L,0,1.7,Y,3,DAY 4 (TP1),TREATMENT,2021-03-22,5
D6470C00005,LB,D6470C00005-0010,19,HDL,HDL Cholesterol,CHEMISTRY,SERUM,1.58,mmol/L,1.58,1.58,mmol/L,1.0,2.2,Y,3,DAY 4 (TP1),TREATMENT,2021-03-22,5
D6470C00005,LB,D6470C00005-0010,20,SODIUM,Sodium,CHEMISTRY,SERUM,144.0,mmol/L,144.0,144.0,mmol/L,136,145,Y,3,DAY 4 (TP1),TREATMENT,2021-03-22,5
D6470C00005,LB,D6470C00005-0010,21,K,Potassium,CHEMISTRY,SERUM,3.9,mmol/L,3.9,3.9,mmol/L,3.5,5.1,Y,3,DAY 4 (TP1),TREATMENT,2021-03-22,5
D6470C00005,LB,D6470C00005-0010,22,CORTISOL,Cortisol,CHEMISTRY,SERUM,459.0,nmol/L,459.0,459.0,nmol/L,138,635,Y,3,DAY 4 (TP1),TREATMENT,2021-03-22,5
D6470C00005,LB,D6470C00005-0010,23,HGB,Hemoglobin,HEMATOLOGY,SERUM,126.0,g/L,126.0,126.0,g/L,120,160,N,3,DAY 4 (TP1),TREATMENT,2021-03-22,5
D6470C00005,LB,D6470C00005-0010,24,HCT,Hematocrit,HEMATOLOGY,SERUM,0.48,1,0.48,0.48,1,0.36,0.48,N,3,DAY 4 (TP1),TREATMENT,2021-03-22,5
D6470C00005,LB,D6470C00005-0010,25,K,Potassium,URINALYSIS,URINE,33.0,mmol/L,33.0,33.0,mmol/L,,,N,3,DAY 4 (TP1),TREATMENT,2021-03-22,5
D6470C00005,LB,D6470C00005-0010,26,SODIUM,Sodium,URINALYSIS,URINE,143.0,mmol/L,143.0,143.0,mmol/L,,,N,3,DAY 4 (TP1),TREATMENT,2021-03-22,5
D6470C00005,LB,D6470C00005-0010,27,GLUC,Glucose,CHEMISTRY,SERUM,9.5,mmol/L,9.5,9.5,mmol/L,4.1,5.9,Y,5,DAY 31 (TP2),TREATMENT,2021-04-18,32
D6470C00005,LB,D6470C00005-0010,28,INSULIN,Insulin,CHEMISTRY,SERUM,159.0,pmol/L,159.0,159.0,pmol/L,18,173,Y,5,DAY 31 (TP2),TREATMENT,2021-04-18,32
D6470C00005,LB,D6470C00005-0010,29,CPEPTIDE,C-Peptide,CHEMISTRY,SERUM,0.82,nmol/L,0.82,0.82,nmol/L,0.37,1.47,Y,5,DAY 31 (TP2),TREATMENT,2021-04-18,32
D6470C00005,LB,D6470C00005-0010,30,HBA1C,Hemoglobin A1C,CHEMISTRY,SERUM,8.0,%,8.0,8.0,%,4.0,6.0,Y,5,DAY 31 (TP2),TREATMENT,2021-04-18,32
D6470C00005,LB,D6470C00005-0010,31,CHOL,Cholesterol,CHEMISTRY,SERUM,5.0,mmol/L,5.0,5.0,mmol/L,0,5.2,Y,5,DAY 31 (TP2),TREATMENT,2021-04-18,32
D6470C00005,LB,D6470C00005-0010,32,TRIG,Triglycerides,CHEMISTRY,SERUM,0.92,mmol/L,0.92,0.92,mmol/L,0,1.7,Y,5,DAY 31 (TP2),TREATMENT,2021-04-18,32
D6470C00005,LB,D6470C00005-0010,33,HDL,HDL Cholesterol,CHEMISTRY,SERUM,1.77,mmol/L,1.77,1.77,mmol/L,1.0,2.2,Y,5,DAY 31 (TP2),TREATMENT,2021-04-18,32
D6470C00005,LB,D6470C00005-0010,34,SODIUM,Sodium,CHEMISTRY,SERUM,139.0,mmol/L,139.0,139.0,mmol/L,136,145,Y,5,DAY 31 (TP2),TREATMENT,2021-04-18,32
D6470C00005,LB,D6470C00005-0010,35,K,Potassium,CHEMISTRY,SERUM,3.9,mmol/L,3.9,3.9,mmol/L,3.5,5.1,Y,5,DAY 31 (TP2),TREATMENT,2021-04-18,32
D6470C00005,LB,D6470C00005-0010,36,CORTISOL,Cortisol,CHEMISTRY,SERUM,420.0,nmol/L,420.0,420.0,nmol/L,138,635,Y,5,DAY 31 (TP2),TREATMENT,2021-04-18,32
D6470C00005,LB,D6470C00005-0010,37,HGB,Hemoglobin,HEMATOLOGY,SERUM,155.0,g/L,155.0,155.0,g/L,120,160,N,5,DAY 31 (TP2),TREATMENT,2021-04-18,32
D6470C00005,LB,D6470C00005-0010,38,HCT,Hematocrit,HEMATOLOGY,SERUM,0.41,1,0.41,0.41,1,0.36,0.48,N,5,DAY 31 (TP2),TREATMENT,2021-04-18,32
D6470C00005,LB,D6470C00005-0010,39,K,Potassium,URINALYSIS,URINE,22.0,mmol/L,22.0,22.0,mmol/L,,,N,5,DAY 31 (TP2),TREATMENT,2021-04-18,32
D6470C00005,LB,D6470C00005-0010,40,SODIUM,Sodium,URINALYSIS,URINE,45.0,mmol/L,45.0,45.0,mmol/L,,,N,5,DAY 31 (TP2),TREATMENT,2021-04-18,32
D6470C00005,LB,D6470C00005-0010,41,GLUC,Glucose,CHEMISTRY,SERUM,8.2,mmol/L,8.2,8.2,mmol/L,4.1,5.9,Y,6,FOLLOW-UP,FOLLOW-UP,2021-05-18,62
D6470C00005,LB,D6470C00005-0010,42,INSULIN,Insulin,CHEMISTRY,SERUM,105.0,pmol/L,105.0,105.0,pmol/L,18,173,Y,6,FOLLOW-UP,FOLLOW-UP,2021-05-18,62
D6470C00005,LB,D6470C00005-0010,43,CPEPTIDE,C-Peptide,CHEMISTRY,SERUM,1.17,nmol/L,1.17,1.17,nmol/L,0.37,1.47,Y,6,FOLLOW-UP,FOLLOW-UP,2021-05-18,62
D6470C00005,LB,D6470C00005-0010,44,HBA1C,Hemoglobin A1C,CHEMISTRY,SERUM,6.5,%,6.5,6.5,%,4.0,6.0,Y,6,FOLLOW-UP,FOLLOW-UP,2021-05-18,62
D6470C00005,LB,D6470C00005-0010,45,CHOL,Cholesterol,CHEMISTRY,SERUM,3.6,mmol/L,3.6,3.6,mmol/L,0,5.2,Y,6,FOLLOW-UP,FOLLOW-UP,2021-05-18,62
D6470C00005,LB,D6470C00005-0010,46,TRIG,Triglycerides,CHEMISTRY,SERUM,1.87,mmol/L,1.87,1.87,mmol/L,0,1.7,Y,6,FOLLOW-UP,FOLLOW-UP,2021-05-18,62
D6470C00005,LB,D6470C00005-0010,47,HDL,HDL Cholesterol,CHEMISTRY,SERUM,1.48,mmol/L,1.48,1.48,mmol/L,1.0,2.2,Y,6,FOLLOW-UP,FOLLOW-UP,2021-05-18,62
D6470C00005,LB,D6470C00005-0010,48,SODIUM,Sodium,CHEMISTRY,SERUM,138.0,mmol/L,138.0,138.0,mmol/L,136,145,Y,6,FOLLOW-UP,FOLLOW-UP,2021-05-18,62
D6470C00005,LB,D6470C00005-0010,49,K,Potassium,CHEMISTRY,SERUM,5.0,mmol/L,5.0,5.0,mmol/L,3.5,5.1,Y,6,FOLLOW-UP,FOLLOW-UP,2021-05-18,62
D6470C00005,LB,D6470C00005-0010,50,CORTISOL,Cortisol,CHEMISTRY,SERUM,180.0,nmol/L,180.0,180.0,nmol/L,138,635,Y,6,FOLLOW-UP,FOLLOW-UP,2021-05-18,62
D6470C00005,LB,D6470C00005-0010,51,HGB,Hemoglobin,HEMATOLOGY,SERUM,140.0,g/L,140.0,140.0,g/L,120,160,N,6,FOLLOW-UP,FOLLOW-UP,2021-05-18,62
D6470C00005,LB,D6470C00005-0010,52,HCT,Hematocrit,HEMATOLOGY,SERUM,0.41,1,0.41,0.41,1,0.36,0.48,N,6,FOLLOW-UP,FOLLOW-UP,2021-05-18,62
D6470C00005,LB,D6470C00005-0011,1,GLUC,Glucose,CHEMISTRY,SERUM,7.4,mmol/L,7.4,7.4,mmol/L,4.1,5.9,Y,1,SCREENING,SCREENING,2021-01-21,-14
D6470C00005,LB,D6470C00005-0011,2,INSULIN,Insulin,CHEMISTRY,SERUM,90.0,pmol/L,90.0,90.0,pmol/L,18,173,Y,1,SCREENING,SCREENING,2021-01-21,-14
D6470C00005,LB,D6470C00005-0011,3,CPEPTIDE,C-Peptide,CHEMISTRY,SERUM,0.49,nmol/L,0.49,0.49,nmol/L,0.37,1.47,Y,1,SCREENING,SCREENING,2021-01-21,-14
D6470C00005,LB,D6470C00005-0011,4,HBA1C,Hemoglobin A1C,CHEMISTRY,SERUM,8.1,%,8.1,8.1,%,4.0,6.0,Y,1,SCREENING,SCREENING,2021-01-21,-14
D6470C00005,LB,D6470C00005-0011,5,CHOL,Cholesterol,CHEMISTRY,SERUM,4.0,mmol/L,4.0,4.0,mmol/L,0,5.2,Y,1,SCREENING,SCREENING,2021-01-21,-14
D6470C00005,LB,D6470C00005-0011,6,TRIG,Triglycerides,CHEMISTRY,SERUM,1.46,mmol/L,1.46,1.46,mmol/L,0,1.7,Y,1,SCREENING,SCREENING,2021-01-21,-14
D6470C00005,LB,D6470C00005-0011,7,HDL,HDL Cholesterol,CHEMISTRY,SERUM,1.53,mmol/L,1.53,1.53,mmol/L,1.0,2.2,Y,1,SCREENING,SCREENING,2021-01-21,-14
D6470C00005,LB,D6470C00005-0011,8,SODIUM,Sodium,CHEMISTRY,SERUM,145.0,mmol/L,145.0,145.0,mmol/L,136,145,Y,1,SCREENING,SCREENING,2021-01-21,-14
D6470C00005,LB,D6470C00005-0011,9,K,Potassium,CHEMISTRY,SERUM,4.3,mmol/L,4.3,4.3,mmol/L,3.5,5.1,Y,1,SCREENING,SCREENING,2021-01-21,-14
D6470C00005,LB,D6470C00005-0011,10,CORTISOL,Cortisol,CHEMISTRY,SERUM,204.0,nmol/L,204.0,204.0,nmol/L,138,635,Y,1,SCREENING,SCREENING,2021-01-21,-14
D6470C00005,LB,D6470C00005-0011,11,HGB,Hemoglobin,HEMATOLOGY,SERUM,160.0,g/L,160.0,160.0,g/L,120,160,N,1,SCREENING,SCREENING,2021-01-21,-14
D6470C00005,LB,D6470C00005-0011,12,HCT,Hematocrit,HEMATOLOGY,SERUM,0.49,1,0.49,0.49,1,0.36,0.48,N,1,SCREENING,SCREENING,2021-01-21,-14
D6470C00005,LB,D6470C00005-0011,13,GLUC,Glucose,CHEMISTRY,SERUM,11.7,mmol/L,11.7,11.7,mmol/L,4.1,5.9,Y,3,DAY 4 (TP1),TREATMENT,2021-02-08,5
D6470C00005,LB,D6470C00005-0011,14,INSULIN,Insulin,CHEMISTRY,SERUM,48.0,pmol/L,48.0,48.0,pmol/L,18,173,Y,3,DAY 4 (TP1),TREATMENT,2021-02-08,5
D6470C00005,LB,D6470C00005-0011,15,CPEPTIDE,C-Peptide,CHEMISTRY,SERUM,0.76,nmol/L,0.76,0.76,nmol/L,0.37,1.47,Y,3,DAY 4 (TP1),TREATMENT,2021-02-08,5
D6470C00005,LB,D6470C00005-0011,16,HBA1C,Hemoglobin A1C,CHEMISTRY,SERUM,8.3,%,8.3,8.3,%,4.0,6.0,Y,3,DAY 4 (TP1),TREATMENT,2021-02-08,5
D6470C00005,LB,D6470C00005-0011,17,CHOL,Cholesterol,CHEMISTRY,SERUM,6.5,mmol/L,6.5,6.5,mmol/L,0,5.2,Y,3,DAY 4 (TP1),TREATMENT,2021-02-08,5
D6470C00005,LB,D6470C00005-0011,18,TRIG,Triglycerides,CHEMISTRY,SERUM,1.12,mmol/L,1.12,1.12,mmol/L,0,1.7,Y,3,DAY 4 (TP1),TREATMENT,2021-02-08,5
D6470C00005,LB,D6470C00005-0011,19,HDL,HDL Cholesterol,CHEMISTRY,SERUM,1.38,mmol/L,1.38,1.38,mmol/L,1.0,2.2,Y,3,DAY 4 (TP1),TREATMENT,2021-02-08,5
D6470C00005,LB,D6470C00005-0011,20,SODIUM,Sodium,CHEMISTRY,SERUM,139.0,mmol/L,139.0,139.0,mmol/L,136,145,Y,3,DAY 4 (TP1),TREATMENT,2021-02-08,5
D6470C00005,LB,D6470C00005-0011,21,K,Potassium,CHEMISTRY,SERUM,4.1,mmol/L,4.1,4.1,mmol/L,3.5,5.1,Y,3,DAY 4 (TP1),TREATMENT,2021-02-08,5
D6470C00005,LB,D6470C00005-0011,22,CORTISOL,Cortisol,CHEMISTRY,SERUM,322.0,nmol/L,322.0,322.0,nmol/L,138,635,Y,3,DAY 4 (TP1),TREATMENT,2021-02-08,5
D6470C00005,LB,D6470C00005-0011,23,HGB,Hemoglobin,HEMATOLOGY,SERUM,131.0,g/L,131.0,131.0,g/L,120,160,N,3,DAY 4 (TP1),TREATMENT,2021-02-08,5
D6470C00005,LB,D6470C00005-0011,24,HCT,Hematocrit,HEMATOLOGY,SERUM,0.38,1,0.38,0.38,1,0.36,0.48,N,3,DAY 4 (TP1),TREATMENT,2021-02-08,5
D6470C00005,LB,D6470C00005-0011,25,K,Potassium,URINALYSIS,URINE,67.0,mmol/L,67.0,67.0,mmol/L,,,N,3,DAY 4 (TP1),TREATMENT,2021-02-08,5
D6470C00005,LB,D6470C00005-0011,26,SODIUM,Sodium,URINALYSIS,URINE,194.0,mmol/L,194.0,194.0,mmol/L,,,N,3,DAY 4 (TP1),TREATMENT,2021-02-08,5
D6470C00005,LB,D6470C00005-0011,27,GLUC,Glucose,CHEMISTRY,SERUM,11.5,mmol/L,11.5,11.5,mmol/L,4.1,5.9,Y,5,DAY 31 (TP2),TREATMENT,2021-03-07,32
D6470C00005,LB,D6470C00005-0011,28,INSULIN,Insulin,CHEMISTRY,SERUM,142.0,pmol/L,142.0,142.0,pmol/L,18,173,Y,5,DAY 31 (TP2),TREATMENT,2021-03-07,32
D6470C00005,LB,D6470C00005-0011,29,CPEPTIDE,C-Peptide,CHEMISTRY,SERUM,1.39,nmol/L,1.39,1.39,nmol/L,0.37,1.47,Y,5,DAY 31 (TP2),TREATMENT,2021-03-07,32
D6470C00005,LB,D6470C00005-0011,30,HBA1C,Hemoglobin A1C,CHEMISTRY,SERUM,8.0,%,8.0,8.0,%,4.0,6.0,Y,5,DAY 31 (TP2),TREATMENT,2021-03-07,32
D6470C00005,LB,D6470C00005-0011,31,CHOL,Cholesterol,CHEMISTRY,SERUM,6.4,mmol/L,6.4,6.4,mmol/L,0,5.2,Y,5,DAY 31 (TP2),TREATMENT,2021-03-07,32
D6470C00005,LB,D6470C00005-0011,32,TRIG,Triglycerides,CHEMISTRY,SERUM,2.11,mmol/L,2.11,2.11,mmol/L,0,1.7,Y,5,DAY 31 (TP2),TREATMENT,2021-03-07,32
D6470C00005,LB,D6470C00005-0011,33,HDL,HDL Cholesterol,CHEMISTRY,SERUM,1.56,mmol/L,1.56,1.56,mmol/L,1.0,2.2,Y,5,DAY 31 (TP2),TREATMENT,2021-03-07,32
D6470C00005,LB,D6470C00005-0011,34,SODIUM,Sodium,CHEMISTRY,SERUM,142.0,mmol/L,142.0,142.0,mmol/L,136,145,Y,5,DAY 31 (TP2),TREATMENT,2021-03-07,32
D6470C00005,LB,D6470C00005-0011,35,K,Potassium,CHEMISTRY,SERUM,4.4,mmol/L,4.4,4.4,mmol/L,3.5,5.1,Y,5,DAY 31 (TP2),TREATMENT,2021-03-07,32
D6470C00005,LB,D6470C00005-0011,36,CORTISOL,Cortisol,CHEMISTRY,SERUM,251.0,nmol/L,251.0,251.0,nmol/L,138,635,Y,5,DAY 31 (TP2),TREATMENT,2021-03-07,32
D6470C00005,LB,D6470C00005-0011,37,HGB,Hemoglobin,HEMATOLOGY,SERUM,127.0,g/L,127.0,127.0,g/L,120,160,N,5,DAY 31 (TP2),TREATMENT,2021-03-07,32
D6470C00005,LB,D6470C00005-0011,38,HCT,Hematocrit,HEMATOLOGY,SERUM,0.44,1,0.44,0.44,1,0.36,0.48,N,5,DAY 31 (TP2),TREATMENT,2021-03-07,32
D6470C00005,LB,D6470C00005-0011,39,K,Potassium,URINALYSIS,URINE,38.0,mmol/L,38.0,38.0,mmol/L,,,N,5,DAY 31 (TP2),TREATMENT,2021-03-07,32
D6470C00005,LB,D6470C00005-0011,40,SODIUM,Sodium,URINALYSIS,URINE,146.0,mmol/L,146.0,146.0,mmol/L,,,N,5,DAY 31 (TP2),TREATMENT,2021-03-07,32
D6470C00005,LB,D6470C00005-0011,41,GLUC,Glucose,CHEMISTRY,SERUM,9.3,mmol/L,9.3,9.3,mmol/L,4.1,5.9,Y,6,FOLLOW-UP,FOLLOW-UP,2021-04-06,62
D6470C00005,LB,D6470C00005-0011,42,INSULIN,Insulin,CHEMISTRY,SERUM,149.0,pmol/L,149.0,149.0,pmol/L,18,173,Y,6,FOLLOW-UP,FOLLOW-UP,2021-04-06,62
D6470C00005,LB,D6470C00005-0011,43,CPEPTIDE,C-Peptide,CHEMISTRY,SERUM,0.47,nmol/L,0.47,0.47,nmol/L,0.37,1.47,Y,6,FOLLOW-UP,FOLLOW-UP,2021-04-06,62
D6470C00005,LB,D6470C00005-0011,44,HBA1C,Hemoglobin A1C,CHEMISTRY,SERUM,8.9,%,8.9,8.9,%,4.0,6.0,Y,6,FOLLOW-UP,FOLLOW-UP,2021-04-06,62
D6470C00005,LB,D6470C00005-0011,45,CHOL,Cholesterol,CHEMISTRY,SERUM,5.5,mmol/L,5.5,5.5,mmol/L,0,5.2,Y,6,FOLLOW-UP,FOLLOW-UP,2021-04-06,62
D6470C00005,LB,D6470C00005-0011,46,TRIG,Triglycerides,CHEMISTRY,SERUM,1.72,mmol/L,1.72,1.72,mmol/L,0,1.7,Y,6,FOLLOW-UP,FOLLOW-UP,2021-04-06,62
D6470C00005,LB,D6470C00005-0011,47,HDL,HDL Cholesterol,CHEMISTRY,SERUM,1.37,mmol/L,1.37,1.37,mmol/L,1.0,2.2,Y,6,FOLLOW-UP,FOLLOW-UP,2021-04-06,62
D6470C00005,LB,D6470C00005-0011,48,SODIUM,Sodium,CHEMISTRY,SERUM,141.0,mmol/L,141.0,141.0,mmol/L,136,145,Y,6,FOLLOW-UP,FOLLOW-UP,2021-04-06,62
D6470C00005,LB,D6470C00005-0011,49,K,Potassium,CHEMISTRY,SERUM,3.8,mmol/L,3.8,3.8,mmol/L,3.5,5.1,Y,6,FOLLOW-UP,FOLLOW-UP,2021-04-06,62
D6470C00005,LB,D6470C00005-0011,50,CORTISOL,Cortisol,CHEMISTRY,SERUM,411.0,nmol/L,411.0,411.0,nmol/L,138,635,Y,6,FOLLOW-UP,FOLLOW-UP,2021-04-06,62
D6470C00005,LB,D6470C00005-0011,51,HGB,Hemoglobin,HEMATOLOGY,SERUM,148.0,g/L,148.0,148.0,g/L,120,160,N,6,FOLLOW-UP,FOLLOW-UP,2021-04-06,62
D6470C00005,LB,D6470C00005-0011,52,HCT,Hematocrit,HEMATOLOGY,SERUM,0.38,1,0.38,0.38,1,0.36,0.48,N,6,FOLLOW-UP,FOLLOW-UP,2021-04-06,62
D6470C00005,LB,D6470C00005-0012,1,GLUC,Glucose,CHEMISTRY,SERUM,7.4,mmol/L,7.4,7.4,mmol/L,4.1,5.9,Y,1,SCREENING,SCREENING,2020-12-31,-14
D6470C00005,LB,D6470C00005-0012,2,INSULIN,Insulin,CHEMISTRY,SERUM,143.0,pmol/L,143.0,143.0,pmol/L,18,173,Y,1,SCREENING,SCREENING,2020-12-31,-14
D6470C00005,LB,D6470C00005-0012,3,CPEPTIDE,C-Peptide,CHEMISTRY,SERUM,1.59,nmol/L,1.59,1.59,nmol/L,0.37,1.47,Y,1,SCREENING,SCREENING,2020-12-31,-14
D6470C00005,LB,D6470C00005-0012,4,HBA1C,Hemoglobin A1C,CHEMISTRY,SERUM,8.4,%,8.4,8.4,%,4.0,6.0,Y,1,SCREENING,SCREENING,2020-12-31,-14
D6470C00005,LB,D6470C00005-0012,5,CHOL,Cholesterol,CHEMISTRY,SERUM,6.1,mmol/L,6.1,6.1,mmol/L,0,5.2,Y,1,SCREENING,SCREENING,2020-12-31,-14
D6470C00005,LB,D6470C00005-0012,6,TRIG,Triglycerides,CHEMISTRY,SERUM,1.68,mmol/L,1.68,1.68,mmol/L,0,1.7,Y,1,SCREENING,SCREENING,2020-12-31,-14
D6470C00005,LB,D6470C00005-0012,7,HDL,HDL Cholesterol,CHEMISTRY,SERUM,1.27,mmol/L,1.27,1.27,mmol/L,1.0,2.2,Y,1,SCREENING,SCREENING,2020-12-31,-14
D6470C00005,LB,D6470C00005-0012,8,SODIUM,Sodium,CHEMISTRY,SERUM,142.0,mmol/L,142.0,142.0,mmol/L,136,145,Y,1,SCREENING,SCREENING,2020-12-31,-14
D6470C00005,LB,D6470C00005-0012,9,K,Potassium,CHEMISTRY,SERUM,4.2,mmol/L,4.2,4.2,mmol/L,3.5,5.1,Y,1,SCREENING,SCREENING,2020-12-31,-14
D6470C00005,LB,D6470C00005-0012,10,CORTISOL,Cortisol,CHEMISTRY,SERUM,290.0,nmol/L,290.0,290.0,nmol/L,138,635,Y,1,SCREENING,SCREENING,2020-12-31,-14
D6470C00005,LB,D6470C00005-0012,11,HGB,Hemoglobin,HEMATOLOGY,SERUM,144.0,g/L,144.0,144.0,g/L,120,160,N,1,SCREENING,SCREENING,2020-12-31,-14
D6470C00005,LB,D6470C00005-0012,12,HCT,Hematocrit,HEMATOLOGY,SERUM,0.5,1,0.5,0.5,1,0.36,0.48,N,1,SCREENING,SCREENING,2020-12-31,-14
D6470C00005,LB,D6470C00005-0012,13,GLUC,Glucose,CHEMISTRY,SERUM,10.0,mmol/L,10.0,10.0,mmol/L,4.1,5.9,Y,3,DAY 4 (TP1),TREATMENT,2021-01-18,5
D6470C00005,LB,D6470C00005-0012,14,INSULIN,Insulin,CHEMISTRY,SERUM,52.0,pmol/L,52.0,52.0,pmol/L,18,173,Y,3,DAY 4 (TP1),TREATMENT,2021-01-18,5
D6470C00005,LB,D6470C00005-0012,15,CPEPTIDE,C-Peptide,CHEMISTRY,SERUM,1.35,nmol/L,1.35,1.35,nmol/L,0.37,1.47,Y,3,DAY 4 (TP1),TREATMENT,2021-01-18,5
D6470C00005,LB,D6470C00005-0012,16,HBA1C,Hemoglobin A1C,CHEMISTRY,SERUM,8.9,%,8.9,8.9,%,4.0,6.0,Y,3,DAY 4 (TP1),TREATMENT,2021-01-18,5
D6470C00005,LB,D6470C00005-0012,17,CHOL,Cholesterol,CHEMISTRY,SERUM,5.4,mmol/L,5.4,5.4,mmol/L,0,5.2,Y,3,DAY 4 (TP1),TREATMENT,2021-01-18,5
D6470C00005,LB,D6470C00005-0012,18,TRIG,Triglycerides,CHEMISTRY,SERUM,1.25,mmol/L,1.25,1.25,mmol/L,0,1.7,Y,3,DAY 4 (TP1),TREATMENT,2021-01-18,5
D6470C00005,LB,D6470C00005-0012,19,HDL,HDL Cholesterol,CHEMISTRY,SERUM,1.55,mmol/L,1.55,1.55,mmol/L,1.0,2.2,Y,3,DAY 4 (TP1),TREATMENT,2021-01-18,5
D6470C00005,LB,D6470C00005-0012,20,SODIUM,Sodium,CHEMISTRY,SERUM,136.0,mmol/L,136.0,136.0,mmol/L,136,145,Y,3,DAY 4 (TP1),TREATMENT,2021-01-18,5
D6470C00005,LB,D6470C00005-0012,21,K,Potassium,CHEMISTRY,SERUM,5.0,mmol/L,5.0,5.0,mmol/L,3.5,5.1,Y,3,DAY 4 (TP1),TREATMENT,2021-01-18,5
D6470C00005,LB,D6470C00005-0012,22,CORTISOL,Cortisol,CHEMISTRY,SERUM,250.0,nmol/L,250.0,250.0,nmol/L,138,635,Y,3,DAY 4 (TP1),TREATMENT,2021-01-18,5
D6470C00005,LB,D6470C00005-0012,23,HGB,Hemoglobin,HEMATOLOGY,SERUM,134.0,g/L,134.0,134.0,g/L,120,160,N,3,DAY 4 (TP1),TREATMENT,2021-01-18,5
D6470C00005,LB,D6470C00005-0012,24,HCT,Hematocrit,HEMATOLOGY,SERUM,0.46,1,0.46,0.46,1,0.36,0.48,N,3,DAY 4 (TP1),TREATMENT,2021-01-18,5
D6470C00005,LB,D6470C00005-0012,25,K,Potassium,URINALYSIS,URINE,59.0,mmol/L,59.0,59.0,mmol/L,,,N,3,DAY 4 (TP1),TREATMENT,2021-01-18,5
D6470C00005,LB,D6470C00005-0012,26,SODIUM,Sodium,URINALYSIS,URINE,162.0,mmol/L,162.0,162.0,mmol/L,,,N,3,DAY 4 (TP1),TREATMENT,2021-01-18,5
D6470C00005,LB,D6470C00005-0012,27,GLUC,Glucose,CHEMISTRY,SERUM,7.6,mmol/L,7.6,7.6,mmol/L,4.1,5.9,Y,5,DAY 31 (TP2),TREATMENT,2021-02-14,32
D6470C00005,LB,D6470C00005-0012,28,INSULIN,Insulin,CHEMISTRY,SERUM,45.0,pmol/L,45.0,45.0,pmol/L,18,173,Y,5,DAY 31 (TP2),TREATMENT,2021-02-14,32
D6470C00005,LB,D6470C00005-0012,29,CPEPTIDE,C-Peptide,CHEMISTRY,SERUM,0.99,nmol/L,0.99,0.99,nmol/L,0.37,1.47,Y,5,DAY 31 (TP2),TREATMENT,2021-02-14,32
D6470C00005,LB,D6470C00005-0012,30,HBA1C,Hemoglobin A1C,CHEMISTRY,SERUM,7.9,%,7.9,7.9,%,4.0,6.0,Y,5,DAY 31 (TP2),TREATMENT,2021-02-14,32
D6470C00005,LB,D6470C00005-0012,31,CHOL,Cholesterol,CHEMISTRY,SERUM,3.9,mmol/L,3.9,3.9,mmol/L,0,5.2,Y,5,DAY 31 (TP2),TREATMENT,2021-02-14,32
D6470C00005,LB,D6470C00005-0012,32,TRIG,Triglycerides,CHEMISTRY,SERUM,2.48,mmol/L,2.48,2.48,mmol/L,0,1.7,Y,5,DAY 31 (TP2),TREATMENT,2021-02-14,32
D6470C00005,LB,D6470C00005-0012,33,HDL,HDL Cholesterol,CHEMISTRY,SERUM,1.58,mmol/L,1.58,1.58,mmol/L,1.0,2.2,Y,5,DAY 31 (TP2),TREATMENT,2021-02-14,32
D6470C00005,LB,D6470C00005-0012,34,SODIUM,Sodium,CHEMISTRY,SERUM,138.0,mmol/L,138.0,138.0,mmol/L,136,145,Y,5,DAY 31 (TP2),TREATMENT,2021-02-14,32
D6470C00005,LB,D6470C00005-0012,35,K,Potassium,CHEMISTRY,SERUM,5.0,mmol/L,5.0,5.0,mmol/L,3.5,5.1,Y,5,DAY 31 (TP2),TREATMENT,2021-02-14,32
D6470C00005,LB,D6470C00005-0012,36,CORTISOL,Cortisol,CHEMISTRY,SERUM,409.0,nmol/L,409.0,409.0,nmol/L,138,635,Y,5,DAY 31 (TP2),TREATMENT,2021-02-14,32
D6470C00005,LB,D6470C00005-0012,37,HGB,Hemoglobin,HEMATOLOGY,SERUM,162.0,g/L,162.0,162.0,g/L,120,160,N,5,DAY 31 (TP2),TREATMENT,2021-02-14,32
D6470C00005,LB,D6470C00005-0012,38,HCT,Hematocrit,HEMATOLOGY,SERUM,0.43,1,0.43,0.43,1,0.36,0.48,N,5,DAY 31 (TP2),TREATMENT,2021-02-14,32
D6470C00005,LB,D6470C00005-0012,39,K,Potassium,URINALYSIS,URINE,69.0,mmol/L,69.0,69.0,mmol/L,,,N,5,DAY 31 (TP2),TREATMENT,2021-02-14,32
D6470C00005,LB,D6470C00005-0012,40,SODIUM,Sodium,URINALYSIS,URINE,45.0,mmol/L,45.0,45.0,mmol/L,,,N,5,DAY 31 (TP2),TREATMENT,2021-02-14,32
D6470C00005,LB,D6470C00005-0012,41,GLUC,Glucose,CHEMISTRY,SERUM,8.8,mmol/L,8.8,8.8,mmol/L,4.1,5.9,Y,6,FOLLOW-UP,FOLLOW-UP,2021-03-16,62
D6470C00005,LB,D6470C00005-0012,42,INSULIN,Insulin,CHEMISTRY,SERUM,104.0,pmol/L,104.0,104.0,pmol/L,18,173,Y,6,FOLLOW-UP,FOLLOW-UP,2021-03-16,62
D6470C00005,LB,D6470C00005-0012,43,CPEPTIDE,C-Peptide,CHEMISTRY,SERUM,1.09,nmol/L,1.09,1.09,nmol/L,0.37,1.47,Y,6,FOLLOW-UP,FOLLOW-UP,2021-03-16,62
D6470C00005,LB,D6470C00005-0012,44,HBA1C,Hemoglobin A1C,CHEMISTRY,SERUM,8.3,%,8.3,8.3,%,4.0,6.0,Y,6,FOLLOW-UP,FOLLOW-UP,2021-03-16,62
D6470C00005,LB,D6470C00005-0012,45,CHOL,Cholesterol,CHEMISTRY,SERUM,4.0,mmol/L,4.0,4.0,mmol/L,0,5.2,Y,6,FOLLOW-UP,FOLLOW-UP,2021-03-16,62
D6470C00005,LB,D6470C00005-0012,46,TRIG,Triglycerides,CHEMISTRY,SERUM,1.03,mmol/L,1.03,1.03,mmol/L,0,1.7,Y,6,FOLLOW-UP,FOLLOW-UP,2021-03-16,62
D6470C00005,LB,D6470C00005-0012,47,HDL,HDL Cholesterol,CHEMISTRY,SERUM,1.13,mmol/L,1.13,1.13,mmol/L,1.0,2.2,Y,6,FOLLOW-UP,FOLLOW-UP,2021-03-16,62
D6470C00005,LB,D6470C00005-0012,48,SODIUM,Sodium,CHEMISTRY,SERUM,140.0,mmol/L,140.0,140.0,mmol/L,136,145,Y,6,FOLLOW-UP,FOLLOW-UP,2021-03-16,62
D6470C00005,LB,D6470C00005-0012,49,K,Potassium,CHEMISTRY,SERUM,4.3,mmol/L,4.3,4.3,mmol/L,3.5,5.1,Y,6,FOLLOW-UP,FOLLOW-UP,2021-03-16,62
D6470C00005,LB,D6470C00005-0012,50,CORTISOL,Cortisol,CHEMISTRY,SERUM,532.0,nmol/L,532.0,532.0,nmol/L,138,635,Y,6,FOLLOW-UP,FOLLOW-UP,2021-03-16,62
D6470C00005,LB,D6470C00005-0012,51,HGB,Hemoglobin,HEMATOLOGY,SERUM,158.0,g/L,158.0,158.0,g/L,120,160,N,6,FOLLOW-UP,FOLLOW-UP,2021-03-16,62
D6470C00005,LB,D6470C00005-0012,52,HCT,Hematocrit,HEMATOLOGY,SERUM,0.45,1,0.45,0.45,1,0.36,0.48,N,6,FOLLOW-UP,FOLLOW-UP,2021-03-16,62
D6470C00005,LB,D6470C00005-0013,1,GLUC,Glucose,CHEMISTRY,SERUM,10.0,mmol/L,10.0,10.0,mmol/L,4.1,5.9,Y,1,SCREENING,SCREENING,2021-03-11,-14
D6470C00005,LB,D6470C00005-0013,2,INSULIN,Insulin,CHEMISTRY,SERUM,106.0,pmol/L,106.0,106.0,pmol/L,18,173,Y,1,SCREENING,SCREENING,2021-03-11,-14
D6470C00005,LB,D6470C00005-0013,3,CPEPTIDE,C-Peptide,CHEMISTRY,SERUM,1.38,nmol/L,1.38,1.38,nmol/L,0.37,1.47,Y,1,SCREENING,SCREENING,2021-03-11,-14
D6470C00005,LB,D6470C00005-0013,4,HBA1C,Hemoglobin A1C,CHEMISTRY,SERUM,8.3,%,8.3,8.3,%,4.0,6.0,Y,1,SCREENING,SCREENING,2021-03-11,-14
D6470C00005,LB,D6470C00005-0013,5,CHOL,Cholesterol,CHEMISTRY,SERUM,4.9,mmol/L,4.9,4.9,mmol/L,0,5.2,Y,1,SCREENING,SCREENING,2021-03-11,-14
D6470C00005,LB,D6470C00005-0013,6,TRIG,Triglycerides,CHEMISTRY,SERUM,2.17,mmol/L,2.17,2.17,mmol/L,0,1.7,Y,1,SCREENING,SCREENING,2021-03-11,-14
D6470C00005,LB,D6470C00005-0013,7,HDL,HDL Cholesterol,CHEMISTRY,SERUM,1.8,mmol/L,1.8,1.8,mmol/L,1.0,2.2,Y,1,SCREENING,SCREENING,2021-03-11,-14
D6470C00005,LB,D6470C00005-0013,8,SODIUM,Sodium,CHEMISTRY,SERUM,139.0,mmol/L,139.0,139.0,mmol/L,136,145,Y,1,SCREENING,SCREENING,2021-03-11,-14
D6470C00005,LB,D6470C00005-0013,9,K,Potassium,CHEMISTRY,SERUM,3.8,mmol/L,3.8,3.8,mmol/L,3.5,5.1,Y,1,SCREENING,SCREENING,2021-03-11,-14
D6470C00005,LB,D6470C00005-0013,10,CORTISOL,Cortisol,CHEMISTRY,SERUM,520.0,nmol/L,520.0,520.0,nmol/L,138,635,Y,1,SCREENING,SCREENING,2021-03-11,-14
D6470C00005,LB,D6470C00005-0013,11,HGB,Hemoglobin,HEMATOLOGY,SERUM,133.0,g/L,133.0,133.0,g/L,120,160,N,1,SCREENING,SCREENING,2021-03-11,-14
D6470C00005,LB,D6470C00005-0013,12,HCT,Hematocrit,HEMATOLOGY,SERUM,0.4,1,0.4,0.4,1,0.36,0.48,N,1,SCREENING,SCREENING,2021-03-11,-14
D6470C00005,LB,D6470C00005-0013,13,GLUC,Glucose,CHEMISTRY,SERUM,8.9,mmol/L,8.9,8.9,mmol/L,4.1,5.9,Y,3,DAY 4 (TP1),TREATMENT,2021-03-29,5
D6470C00005,LB,D6470C00005-0013,14,INSULIN,Insulin,CHEMISTRY,SERUM,133.0,pmol/L,133.0,133.0,pmol/L,18,173,Y,3,DAY 4 (TP1),TREATMENT,2021-03-29,5
D6470C00005,LB,D6470C00005-0013,15,CPEPTIDE,C-Peptide,CHEMISTRY,SERUM,0.7,nmol/L,0.7,0.7,nmol/L,0.37,1.47,Y,3,DAY 4 (TP1),TREATMENT,2021-03-29,5
D6470C00005,LB,D6470C00005-0013,16,HBA1C,Hemoglobin A1C,CHEMISTRY,SERUM,7.9,%,7.9,7.9,%,4.0,6.0,Y,3,DAY 4 (TP1),TREATMENT,2021-03-29,5
D6470C00005,LB,D6470C00005-0013,17,CHOL,Cholesterol,CHEMISTRY,SERUM,3.5,mmol/L,3.5,3.5,mmol/L,0,5.2,Y,3,DAY 4 (TP1),TREATMENT,2021-03-29,5
D6470C00005,LB,D6470C00005-0013,18,TRIG,Triglycerides,CHEMISTRY,SERUM,1.9,mmol/L,1.9,1.9,mmol/L,0,1.7,Y,3,DAY 4 (TP1),TREATMENT,2021-03-29,5
D6470C00005,LB,D6470C00005-0013,19,HDL,HDL Cholesterol,CHEMISTRY,SERUM,1.33,mmol/L,1.33,1.33,mmol/L,1.0,2.2,Y,3,DAY 4 (TP1),TREATMENT,2021-03-29,5
D6470C00005,LB,D6470C00005-0013,20,SODIUM,Sodium,CHEMISTRY,SERUM,135.0,mmol/L,135.0,135.0,mmol/L,136,145,Y,3,DAY 4 (TP1),TREATMENT,2021-03-29,5
D6470C00005,LB,D6470C00005-0013,21,K,Potassium,CHEMISTRY,SERUM,3.9,mmol/L,3.9,3.9,mmol/L,3.5,5.1,Y,3,DAY 4 (TP1),TREATMENT,2021-03-29,5
D6470C00005,LB,D6470C00005-0013,22,CORTISOL,Cortisol,CHEMISTRY,SERUM,334.0,nmol/L,334.0,334.0,nmol/L,138,635,Y,3,DAY 4 (TP1),TREATMENT,2021-03-29,5
D6470C00005,LB,D6470C00005-0013,23,HGB,Hemoglobin,HEMATOLOGY,SERUM,149.0,g/L,149.0,149.0,g/L,120,160,N,3,DAY 4 (TP1),TREATMENT,2021-03-29,5
D6470C00005,LB,D6470C00005-0013,24,HCT,Hematocrit,HEMATOLOGY,SERUM,0.45,1,0.45,0.45,1,0.36,0.48,N,3,DAY 4 (TP1),TREATMENT,2021-03-29,5
D6470C00005,LB,D6470C00005-0013,25,K,Potassium,URINALYSIS,URINE,66.0,mmol/L,66.0,66.0,mmol/L,,,N,3,DAY 4 (TP1),TREATMENT,2021-03-29,5
D6470C00005,LB,D6470C00005-0013,26,SODIUM,Sodium,URINALYSIS,URINE,184.0,mmol/L,184.0,184.0,mmol/L,,,N,3,DAY 4 (TP1),TREATMENT,2021-03-29,5
D6470C00005,LB,D6470C00005-0013,27,GLUC,Glucose,CHEMISTRY,SERUM,8.9,mmol/L,8.9,8.9,mmol/L,4.1,5.9,Y,5,DAY 31 (TP2),TREATMENT,2021-04-25,32
D6470C00005,LB,D6470C00005-0013,28,INSULIN,Insulin,CHEMISTRY,SERUM,153.0,pmol/L,153.0,153.0,pmol/L,18,173,Y,5,DAY 31 (TP2),TREATMENT,2021-04-25,32
D6470C00005,LB,D6470C00005-0013,29,CPEPTIDE,C-Peptide,CHEMISTRY,SERUM,0.7,nmol/L,0.7,0.7,nmol/L,0.37,1.47,Y,5,DAY 31 (TP2),TREATMENT,2021-04-25,32
D6470C00005,LB,D6470C00005-0013,30,HBA1C,Hemoglobin A1C,CHEMISTRY,SERUM,7.1,%,7.1,7.1,%,4.0,6.0,Y,5,DAY 31 (TP2),TREATMENT,2021-04-25,32
D6470C00005,LB,D6470C00005-0013,31,CHOL,Cholesterol,CHEMISTRY,SERUM,4.3,mmol/L,4.3,4.3,mmol/L,0,5.2,Y,5,DAY 31 (TP2),TREATMENT,2021-04-25,32
D6470C00005,LB,D6470C00005-0013,32,TRIG,Triglycerides,CHEMISTRY,SERUM,3.09,mmol/L,3.09,3.09,mmol/L,0,1.7,Y,5,DAY 31 (TP2),TREATMENT,2021-04-25,32
D6470C00005,LB,D6470C00005-0013,33,HDL,HDL Cholesterol,CHEMISTRY,SERUM,1.12,mmol/L,1.12,1.12,mmol/L,1.0,2.2,Y,5,DAY 31 (TP2),TREATMENT,2021-04-25,32
D6470C00005,LB,D6470C00005-0013,34,SODIUM,Sodium,CHEMISTRY,SERUM,142.0,mmol/L,142.0,142.0,mmol/L,136,145,Y,5,DAY 31 (TP2),TREATMENT,2021-04-25,32
D6470C00005,LB,D6470C00005-0013,35,K,Potassium,CHEMISTRY,SERUM,4.1,mmol/L,4.1,4.1,mmol/L,3.5,5.1,Y,5,DAY 31 (TP2),TREATMENT,2021-04-25,32
D6470C00005,LB,D6470C00005-0013,36,CORTISOL,Cortisol,CHEMISTRY,SERUM,472.0,nmol/L,472.0,472.0,nmol/L,138,635,Y,5,DAY 31 (TP2),TREATMENT,2021-04-25,32
D6470C00005,LB,D6470C00005-0013,37,HGB,Hemoglobin,HEMATOLOGY,SERUM,155.0,g/L,155.0,155.0,g/L,120,160,N,5,DAY 31 (TP2),TREATMENT,2021-04-25,32
D6470C00005,LB,D6470C00005-0013,38,HCT,Hematocrit,HEMATOLOGY,SERUM,0.46,1,0.46,0.46,1,0.36,0.48,N,5,DAY 31 (TP2),TREATMENT,2021-04-25,32
D6470C00005,LB,D6470C00005-0013,39,K,Potassium,URINALYSIS,URINE,62.0,mmol/L,62.0,62.0,mmol/L,,,N,5,DAY 31 (TP2),TREATMENT,2021-04-25,32
D6470C00005,LB,D6470C00005-0013,40,SODIUM,Sodium,URINALYSIS,URINE,151.0,mmol/L,151.0,151.0,mmol/L,,,N,5,DAY 31 (TP2),TREATMENT,2021-04-25,32
D6470C00005,LB,D6470C00005-0013,41,GLUC,Glucose,CHEMISTRY,SERUM,9.0,mmol/L,9.0,9.0,mmol/L,4.1,5.9,Y,6,FOLLOW-UP,FOLLOW-UP,2021-05-25,62
D6470C00005,LB,D6470C00005-0013,42,INSULIN,Insulin,CHEMISTRY,SERUM,91.0,pmol/L,91.0,91.0,pmol/L,18,173,Y,6,FOLLOW-UP,FOLLOW-UP,2021-05-25,62
D6470C00005,LB,D6470C00005-0013,43,CPEPTIDE,C-Peptide,CHEMISTRY,SERUM,0.49,nmol/L,0.49,0.49,nmol/L,0.37,1.47,Y,6,FOLLOW-UP,FOLLOW-UP,2021-05-25,62
D6470C00005,LB,D6470C00005-0013,44,HBA1C,Hemoglobin A1C,CHEMISTRY,SERUM,6.8,%,6.8,6.8,%,4.0,6.0,Y,6,FOLLOW-UP,FOLLOW-UP,2021-05-25,62
D6470C00005,LB,D6470C00005-0013,45,CHOL,Cholesterol,CHEMISTRY,SERUM,5.0,mmol/L,5.0,5.0,mmol/L,0,5.2,Y,6,FOLLOW-UP,FOLLOW-UP,2021-05-25,62
D6470C00005,LB,D6470C00005-0013,46,TRIG,Triglycerides,CHEMISTRY,SERUM,2.7,mmol/L,2.7,2.7,mmol/L,0,1.7,Y,6,FOLLOW-UP,FOLLOW-UP,2021-05-25,62
D6470C00005,LB,D6470C00005-0013,47,HDL,HDL Cholesterol,CHEMISTRY,SERUM,1.66,mmol/L,1.66,1.66,mmol/L,1.0,2.2,Y,6,FOLLOW-UP,FOLLOW-UP,2021-05-25,62
D6470C00005,LB,D6470C00005-0013,48,SODIUM,Sodium,CHEMISTRY,SERUM,135.0,mmol/L,135.0,135.0,mmol/L,136,145,Y,6,FOLLOW-UP,FOLLOW-UP,2021-05-25,62
D6470C00005,LB,D6470C00005-0013,49,K,Potassium,CHEMISTRY,SERUM,4.0,mmol/L,4.0,4.0,mmol/L,3.5,5.1,Y,6,FOLLOW-UP,FOLLOW-UP,2021-05-25,62
D6470C00005,LB,D6470C00005-0013,50,CORTISOL,Cortisol,CHEMISTRY,SERUM,540.0,nmol/L,540.0,540.0,nmol/L,138,635,Y,6,FOLLOW-UP,FOLLOW-UP,2021-05-25,62
D6470C00005,LB,D6470C00005-0013,51,HGB,Hemoglobin,HEMATOLOGY,SERUM,145.0,g/L,145.0,145.0,g/L,120,160,N,6,FOLLOW-UP,FOLLOW-UP,2021-05-25,62
D6470C00005,LB,D6470C00005-0013,52,HCT,Hematocrit,HEMATOLOGY,SERUM,0.38,1,0.38,0.38,1,0.36,0.48,N,6,FOLLOW-UP,FOLLOW-UP,2021-05-25,62
D6470C00005,LB,D6470C00005-0014,1,GLUC,Glucose,CHEMISTRY,SERUM,9.7,mmol/L,9.7,9.7,mmol/L,4.1,5.9,Y,1,SCREENING,SCREENING,2021-02-06,-14
D6470C00005,LB,D6470C00005-0014,2,INSULIN,Insulin,CHEMISTRY,SERUM,86.0,pmol/L,86.0,86.0,pmol/L,18,173,Y,1,SCREENING,SCREENING,2021-02-06,-14
D6470C00005,LB,D6470C00005-0014,3,CPEPTIDE,C-Peptide,CHEMISTRY,SERUM,0.46,nmol/L,0.46,0.46,nmol/L,0.37,1.47,Y,1,SCREENING,SCREENING,2021-02-06,-14
D6470C00005,LB,D6470C00005-0014,4,HBA1C,Hemoglobin A1C,CHEMISTRY,SERUM,6.4,%,6.4,6.4,%,4.0,6.0,Y,1,SCREENING,SCREENING,2021-02-06,-14
D6470C00005,LB,D6470C00005-0014,5,CHOL,Cholesterol,CHEMISTRY,SERUM,6.0,mmol/L,6.0,6.0,mmol/L,0,5.2,Y,1,SCREENING,SCREENING,2021-02-06,-14
D6470C00005,LB,D6470C00005-0014,6,TRIG,Triglycerides,CHEMISTRY,SERUM,1.77,mmol/L,1.77,1.77,mmol/L,0,1.7,Y,1,SCREENING,SCREENING,2021-02-06,-14
D6470C00005,LB,D6470C00005-0014,7,HDL,HDL Cholesterol,CHEMISTRY,SERUM,1.13,mmol/L,1.13,1.13,mmol/L,1.0,2.2,Y,1,SCREENING,SCREENING,2021-02-06,-14
D6470C00005,LB,D6470C00005-0014,8,SODIUM,Sodium,CHEMISTRY,SERUM,141.0,mmol/L,141.0,141.0,mmol/L,136,145,Y,1,SCREENING,SCREENING,2021-02-06,-14
D6470C00005,LB,D6470C00005-0014,9,K,Potassium,CHEMISTRY,SERUM,4.2,mmol/L,4.2,4.2,mmol/L,3.5,5.1,Y,1,SCREENING,SCREENING,2021-02-06,-14
D6470C00005,LB,D6470C00005-0014,10,CORTISOL,Cortisol,CHEMISTRY,SERUM,197.0,nmol/L,197.0,197.0,nmol/L,138,635,Y,1,SCREENING,SCREENING,2021-02-06,-14
D6470C00005,LB,D6470C00005-0014,11,HGB,Hemoglobin,HEMATOLOGY,SERUM,144.0,g/L,144.0,144.0,g/L,120,160,N,1,SCREENING,SCREENING,2021-02-06,-14
D6470C00005,LB,D6470C00005-0014,12,HCT,Hematocrit,HEMATOLOGY,SERUM,0.43,1,0.43,0.43,1,0.36,0.48,N,1,SCREENING,SCREENING,2021-02-06,-14
D6470C00005,LB,D6470C00005-0014,13,GLUC,Glucose,CHEMISTRY,SERUM,7.4,mmol/L,7.4,7.4,mmol/L,4.1,5.9,Y,3,DAY 4 (TP1),TREATMENT,2021-02-24,5
D6470C00005,LB,D6470C00005-0014,14,INSULIN,Insulin,CHEMISTRY,SERUM,83.0,pmol/L,83.0,83.0,pmol/L,18,173,Y,3,DAY 4 (TP1),TREATMENT,2021-02-24,5
D6470C00005,LB,D6470C00005-0014,15,CPEPTIDE,C-Peptide,CHEMISTRY,SERUM,0.9,nmol/L,0.9,0.9,nmol/L,0.37,1.47,Y,3,DAY 4 (TP1),TREATMENT,2021-02-24,5
D6470C00005,LB,D6470C00005-0014,16,HBA1C,Hemoglobin A1C,CHEMISTRY,SERUM,6.8,%,6.8,6.8,%,4.0,6.0,Y,3,DAY 4 (TP1),TREATMENT,2021-02-24,5
D6470C00005,LB,D6470C00005-0014,17,CHOL,Cholesterol,CHEMISTRY,SERUM,5.3,mmol/L,5.3,5.3,mmol/L,0,5.2,Y,3,DAY 4 (TP1),TREATMENT,2021-02-24,5
D6470C00005,LB,D6470C00005-0014,18,TRIG,Triglycerides,CHEMISTRY,SERUM,3.11,mmol/L,3.11,3.11,mmol/L,0,1.7,Y,3,DAY 4 (TP1),TREATMENT,2021-02-24,5
D6470C00005,LB,D6470C00005-0014,19,HDL,HDL Cholesterol,CHEMISTRY,SERUM,0.91,mmol/L,0.91,0.91,mmol/L,1.0,2.2,Y,3,DAY 4 (TP1),TREATMENT,2021-02-24,5
D6470C00005,LB,D6470C00005-0014,20,SODIUM,Sodium,CHEMISTRY,SERUM,141.0,mmol/L,141.0,141.0,mmol/L,136,145,Y,3,DAY 4 (TP1),TREATMENT,2021-02-24,5
D6470C00005,LB,D6470C00005-0014,21,K,Potassium,CHEMISTRY,SERUM,4.9,mmol/L,4.9,4.9,mmol/L,3.5,5.1,Y,3,DAY 4 (TP1),TREATMENT,2021-02-24,5
D6470C00005,LB,D6470C00005-0014,22,CORTISOL,Cortisol,CHEMISTRY,SERUM,296.0,nmol/L,296.0,296.0,nmol/L,138,635,Y,3,DAY 4 (TP1),TREATMENT,2021-02-24,5
D6470C00005,LB,D6470C00005-0014,23,HGB,Hemoglobin,HEMATOLOGY,SERUM,137.0,g/L,137.0,137.0,g/L,120,160,N,3,DAY 4 (TP1),TREATMENT,2021-02-24,5
D6470C00005,LB,D6470C00005-0014,24,HCT,Hematocrit,HEMATOLOGY,SERUM,0.49,1,0.49,0.49,1,0.36,0.48,N,3,DAY 4 (TP1),TREATMENT,2021-02-24,5
D6470C00005,LB,D6470C00005-0014,25,K,Potassium,URINALYSIS,URINE,66.0,mmol/L,66.0,66.0,mmol/L,,,N,3,DAY 4 (TP1),TREATMENT,2021-02-24,5
D6470C00005,LB,D6470C00005-0014,26,SODIUM,Sodium,URINALYSIS,URINE,95.0,mmol/L,95.0,95.0,mmol/L,,,N,3,DAY 4 (TP1),TREATMENT,2021-02-24,5
D6470C00005,LB,D6470C00005-0014,27,GLUC,Glucose,CHEMISTRY,SERUM,9.2,mmol/L,9.2,9.2,mmol/L,4.1,5.9,Y,5,DAY 31 (TP2),TREATMENT,2021-03-23,32
D6470C00005,LB,D6470C00005-0014,28,INSULIN,Insulin,CHEMISTRY,SERUM,61.0,pmol/L,61.0,61.0,pmol/L,18,173,Y,5,DAY 31 (TP2),TREATMENT,2021-03-23,32
D6470C00005,LB,D6470C00005-0014,29,CPEPTIDE,C-Peptide,CHEMISTRY,SERUM,0.65,nmol/L,0.65,0.65,nmol/L,0.37,1.47,Y,5,DAY 31 (TP2),TREATMENT,2021-03-23,32
D6470C00005,LB,D6470C00005-0014,30,HBA1C,Hemoglobin A1C,CHEMISTRY,SERUM,6.9,%,6.9,6.9,%,4.0,6.0,Y,5,DAY 31 (TP2),TREATMENT,2021-03-23,32
D6470C00005,LB,D6470C00005-0014,31,CHOL,Cholesterol,CHEMISTRY,SERUM,6.5,mmol/L,6.5,6.5,mmol/L,0,5.2,Y,5,DAY 31 (TP2),TREATMENT,2021-03-23,32
D6470C00005,LB,D6470C00005-0014,32,TRIG,Triglycerides,CHEMISTRY,SERUM,2.18,mmol/L,2.18,2.18,mmol/L,0,1.7,Y,5,DAY 31 (TP2),TREATMENT,2021-03-23,32
D6470C00005,LB,D6470C00005-0014,33,HDL,HDL Cholesterol,CHEMISTRY,SERUM,1.55,mmol/L,1.55,1.55,mmol/L,1.0,2.2,Y,5,DAY 31 (TP2),TREATMENT,2021-03-23,32
D6470C00005,LB,D6470C00005-0014,34,SODIUM,Sodium,CHEMISTRY,SERUM,137.0,mmol/L,137.0,137.0,mmol/L,136,145,Y,5,DAY 31 (TP2),TREATMENT,2021-03-23,32
D6470C00005,LB,D6470C00005-0014,35,K,Potassium,CHEMISTRY,SERUM,3.8,mmol/L,3.8,3.8,mmol/L,3.5,5.1,Y,5,DAY 31 (TP2),TREATMENT,2021-03-23,32
D6470C00005,LB,D6470C00005-0014,36,CORTISOL,Cortisol,CHEMISTRY,SERUM,237.0,nmol/L,237.0,237.0,nmol/L,138,635,Y,5,DAY 31 (TP2),TREATMENT,2021-03-23,32
D6470C00005,LB,D6470C00005-0014,37,HGB,Hemoglobin,HEMATOLOGY,SERUM,160.0,g/L,160.0,160.0,g/L,120,160,N,5,DAY 31 (TP2),TREATMENT,2021-03-23,32
D6470C00005,LB,D6470C00005-0014,38,HCT,Hematocrit,HEMATOLOGY,SERUM,0.45,1,0.45,0.45,1,0.36,0.48,N,5,DAY 31 (TP2),TREATMENT,2021-03-23,32
D6470C00005,LB,D6470C00005-0014,39,K,Potassium,URINALYSIS,URINE,58.0,mmol/L,58.0,58.0,mmol/L,,,N,5,DAY 31 (TP2),TREATMENT,2021-03-23,32
D6470C00005,LB,D6470C00005-0014,40,SODIUM,Sodium,URINALYSIS,URINE,121.0,mmol/L,121.0,121.0,mmol/L,,,N,5,DAY 31 (TP2),TREATMENT,2021-03-23,32
D6470C00005,LB,D6470C00005-0014,41,GLUC,Glucose,CHEMISTRY,SERUM,9.9,mmol/L,9.9,9.9,mmol/L,4.1,5.9,Y,6,FOLLOW-UP,FOLLOW-UP,2021-04-22,62
D6470C00005,LB,D6470C00005-0014,42,INSULIN,Insulin,CHEMISTRY,SERUM,99.0,pmol/L,99.0,99.0,pmol/L,18,173,Y,6,FOLLOW-UP,FOLLOW-UP,2021-04-22,62
D6470C00005,LB,D6470C00005-0014,43,CPEPTIDE,C-Peptide,CHEMISTRY,SERUM,1.29,nmol/L,1.29,1.29,nmol/L,0.37,1.47,Y,6,FOLLOW-UP,FOLLOW-UP,2021-04-22,62
D6470C00005,LB,D6470C00005-0014,44,HBA1C,Hemoglobin A1C,CHEMISTRY,SERUM,6.9,%,6.9,6.9,%,4.0,6.0,Y,6,FOLLOW-UP,FOLLOW-UP,2021-04-22,62
D6470C00005,LB,D6470C00005-0014,45,CHOL,Cholesterol,CHEMISTRY,SERUM,5.5,mmol/L,5.5,5.5,mmol/L,0,5.2,Y,6,FOLLOW-UP,FOLLOW-UP,2021-04-22,62
D6470C00005,LB,D6470C00005-0014,46,TRIG,Triglycerides,CHEMISTRY,SERUM,2.77,mmol/L,2.77,2.77,mmol/L,0,1.7,Y,6,FOLLOW-UP,FOLLOW-UP,2021-04-22,62
D6470C00005,LB,D6470C00005-0014,47,HDL,HDL Cholesterol,CHEMISTRY,SERUM,1.61,mmol/L,1.61,1.61,mmol/L,1.0,2.2,Y,6,FOLLOW-UP,FOLLOW-UP,2021-04-22,62
D6470C00005,LB,D6470C00005-0014,48,SODIUM,Sodium,CHEMISTRY,SERUM,136.0,mmol/L,136.0,136.0,mmol/L,136,145,Y,6,FOLLOW-UP,FOLLOW-UP,2021-04-22,62
D6470C00005,LB,D6470C00005-0014,49,K,Potassium,CHEMISTRY,SERUM,4.9,mmol/L,4.9,4.9,mmol/L,3.5,5.1,Y,6,FOLLOW-UP,FOLLOW-UP,2021-04-22,62
D6470C00005,LB,D6470C00005-0014,50,CORTISOL,Cortisol,CHEMISTRY,SERUM,205.0,nmol/L,205.0,205.0,nmol/L,138,635,Y,6,FOLLOW-UP,FOLLOW-UP,2021-04-22,62
D6470C00005,LB,D6470C00005-0014,51,HGB,Hemoglobin,HEMATOLOGY,SERUM,156.0,g/L,156.0,156.0,g/L,120,160,N,6,FOLLOW-UP,FOLLOW-UP,2021-04-22,62
D6470C00005,LB,D6470C00005-0014,52,HCT,Hematocrit,HEMATOLOGY,SERUM,0.46,1,0.46,0.46,1,0.36,0.48,N,6,FOLLOW-UP,FOLLOW-UP,2021-04-22,62
D6470C00005,LB,D6470C00005-0015,1,GLUC,Glucose,CHEMISTRY,SERUM,9.5,mmol/L,9.5,9.5,mmol/L,4.1,5.9,Y,1,SCREENING,SCREENING,2020-12-05,-14
D6470C00005,LB,D6470C00005-0015,2,INSULIN,Insulin,CHEMISTRY,SERUM,136.0,pmol/L,136.0,136.0,pmol/L,18,173,Y,1,SCREENING,SCREENING,2020-12-05,-14
D6470C00005,LB,D6470C00005-0015,3,CPEPTIDE,C-Peptide,CHEMISTRY,SERUM,1.58,nmol/L,1.58,1.58,nmol/L,0.37,1.47,Y,1,SCREENING,SCREENING,2020-12-05,-14
D6470C00005,LB,D6470C00005-0015,4,HBA1C,Hemoglobin A1C,CHEMISTRY,SERUM,6.7,%,6.7,6.7,%,4.0,6.0,Y,1,SCREENING,SCREENING,2020-12-05,-14
D6470C00005,LB,D6470C00005-0015,5,CHOL,Cholesterol,CHEMISTRY,SERUM,6.7,mmol/L,6.7,6.7,mmol/L,0,5.2,Y,1,SCREENING,SCREENING,2020-12-05,-14
D6470C00005,LB,D6470C00005-0015,6,TRIG,Triglycerides,CHEMISTRY,SERUM,2.88,mmol/L,2.88,2.88,mmol/L,0,1.7,Y,1,SCREENING,SCREENING,2020-12-05,-14
D6470C00005,LB,D6470C00005-0015,7,HDL,HDL Cholesterol,CHEMISTRY,SERUM,1.54,mmol/L,1.54,1.54,mmol/L,1.0,2.2,Y,1,SCREENING,SCREENING,2020-12-05,-14
D6470C00005,LB,D6470C00005-0015,8,SODIUM,Sodium,CHEMISTRY,SERUM,138.0,mmol/L,138.0,138.0,mmol/L,136,145,Y,1,SCREENING,SCREENING,2020-12-05,-14
D6470C00005,LB,D6470C00005-0015,9,K,Potassium,CHEMISTRY,SERUM,4.4,mmol/L,4.4,4.4,mmol/L,3.5,5.1,Y,1,SCREENING,SCREENING,2020-12-05,-14
D6470C00005,LB,D6470C00005-0015,10,CORTISOL,Cortisol,CHEMISTRY,SERUM,399.0,nmol/L,399.0,399.0,nmol/L,138,635,Y,1,SCREENING,SCREENING,2020-12-05,-14
D6470C00005,LB,D6470C00005-0015,11,HGB,Hemoglobin,HEMATOLOGY,SERUM,126.0,g/L,126.0,126.0,g/L,120,160,N,1,SCREENING,SCREENING,2020-12-05,-14
D6470C00005,LB,D6470C00005-0015,12,HCT,Hematocrit,HEMATOLOGY,SERUM,0.46,1,0.46,0.46,1,0.36,0.48,N,1,SCREENING,SCREENING,2020-12-05,-14
D6470C00005,LB,D6470C00005-0015,13,GLUC,Glucose,CHEMISTRY,SERUM,9.6,mmol/L,9.6,9.6,mmol/L,4.1,5.9,Y,3,DAY 4 (TP1),TREATMENT,2020-12-23,5
D6470C00005,LB,D6470C00005-0015,14,INSULIN,Insulin,CHEMISTRY,SERUM,126.0,pmol/L,126.0,126.0,pmol/L,18,173,Y,3,DAY 4 (TP1),TREATMENT,2020-12-23,5
D6470C00005,LB,D6470C00005-0015,15,CPEPTIDE,C-Peptide,CHEMISTRY,SERUM,1.39,nmol/L,1.39,1.39,nmol/L,0.37,1.47,Y,3,DAY 4 (TP1),TREATMENT,2020-12-23,5
D6470C00005,LB,D6470C00005-0015,16,HBA1C,Hemoglobin A1C,CHEMISTRY,SERUM,7.6,%,7.6,7.6,%,4.0,6.0,Y,3,DAY 4 (TP1),TREATMENT,2020-12-23,5
D6470C00005,LB,D6470C00005-0015,17,CHOL,Cholesterol,CHEMISTRY,SERUM,5.2,mmol/L,5.2,5.2,mmol/L,0,5.2,Y,3,DAY 4 (TP1),TREATMENT,2020-12-23,5
D6470C00005,LB,D6470C00005-0015,18,TRIG,Triglycerides,CHEMISTRY,SERUM,0.82,mmol/L,0.82,0.82,mmol/L,0,1.7,Y,3,DAY 4 (TP1),TREATMENT,2020-12-23,5
D6470C00005,LB,D6470C00005-0015,19,HDL,HDL Cholesterol,CHEMISTRY,SERUM,1.5,mmol/L,1.5,1.5,mmol/L,1.0,2.2,Y,3,DAY 4 (TP1),TREATMENT,2020-12-23,5
D6470C00005,LB,D6470C00005-0015,20,SODIUM,Sodium,CHEMISTRY,SERUM,141.0,mmol/L,141.0,141.0,mmol/L,136,145,Y,3,DAY 4 (TP1),TREATMENT,2020-12-23,5
D6470C00005,LB,D6470C00005-0015,21,K,Potassium,CHEMISTRY,SERUM,3.7,mmol/L,3.7,3.7,mmol/L,3.5,5.1,Y,3,DAY 4 (TP1),TREATMENT,2020-12-23,5
D6470C00005,LB,D6470C00005-0015,22,CORTISOL,Cortisol,CHEMISTRY,SERUM,249.0,nmol/L,249.0,249.0,nmol/L,138,635,Y,3,DAY 4 (TP1),TREATMENT,2020-12-23,5
D6470C00005,LB,D6470C00005-0015,23,HGB,Hemoglobin,HEMATOLOGY,SERUM,134.0,g/L,134.0,134.0,g/L,120,160,N,3,DAY 4 (TP1),TREATMENT,2020-12-23,5
D6470C00005,LB,D6470C00005-0015,24,HCT,Hematocrit,HEMATOLOGY,SERUM,0.43,1,0.43,0.43,1,0.36,0.48,N,3,DAY 4 (TP1),TREATMENT,2020-12-23,5
D6470C00005,LB,D6470C00005-0015,25,K,Potassium,URINALYSIS,URINE,42.0,mmol/L,42.0,42.0,mmol/L,,,N,3,DAY 4 (TP1),TREATMENT,2020-12-23,5
D6470C00005,LB,D6470C00005-0015,26,SODIUM,Sodium,URINALYSIS,URINE,124.0,mmol/L,124.0,124.0,mmol/L,,,N,3,DAY 4 (TP1),TREATMENT,2020-12-23,5
D6470C00005,LB,D6470C00005-0015,27,GLUC,Glucose,CHEMISTRY,SERUM,6.8,mmol/L,6.8,6.8,mmol/L,4.1,5.9,Y,5,DAY 31 (TP2),TREATMENT,2021-01-19,32
D6470C00005,LB,D6470C00005-0015,28,INSULIN,Insulin,CHEMISTRY,SERUM,159.0,pmol/L,159.0,159.0,pmol/L,18,173,Y,5,DAY 31 (TP2),TREATMENT,2021-01-19,32
D6470C00005,LB,D6470C00005-0015,29,CPEPTIDE,C-Peptide,CHEMISTRY,SERUM,1.22,nmol/L,1.22,1.22,nmol/L,0.37,1.47,Y,5,DAY 31 (TP2),TREATMENT,2021-01-19,32
D6470C00005,LB,D6470C00005-0015,30,HBA1C,Hemoglobin A1C,CHEMISTRY,SERUM,8.0,%,8.0,8.0,%,4.0,6.0,Y,5,DAY 31 (TP2),TREATMENT,2021-01-19,32
D6470C00005,LB,D6470C00005-0015,31,CHOL,Cholesterol,CHEMISTRY,SERUM,6.4,mmol/L,6.4,6.4,mmol/L,0,5.2,Y,5,DAY 31 (TP2),TREATMENT,2021-01-19,32
D6470C00005,LB,D6470C00005-0015,32,TRIG,Triglycerides,CHEMISTRY,SERUM,1.73,mmol/L,1.73,1.73,mmol/L,0,1.7,Y,5,DAY 31 (TP2),TREATMENT,2021-01-19,32
D6470C00005,LB,D6470C00005-0015,33,HDL,HDL Cholesterol,CHEMISTRY,SERUM,1.33,mmol/L,1.33,1.33,mmol/L,1.0,2.2,Y,5,DAY 31 (TP2),TREATMENT,2021-01-19,32
D6470C00005,LB,D6470C00005-0015,34,SODIUM,Sodium,CHEMISTRY,SERUM,136.0,mmol/L,136.0,136.0,mmol/L,136,145,Y,5,DAY 31 (TP2),TREATMENT,2021-01-19,32
D6470C00005,LB,D6470C00005-0015,35,K,Potassium,CHEMISTRY,SERUM,4.8,mmol/L,4.8,4.8,mmol/L,3.5,5.1,Y,5,DAY 31 (TP2),TREATMENT,2021-01-19,32
D6470C00005,LB,D6470C00005-0015,36,CORTISOL,Cortisol,CHEMISTRY,SERUM,509.0,nmol/L,509.0,509.0,nmol/L,138,635,Y,5,DAY 31 (TP2),TREATMENT,2021-01-19,32
D6470C00005,LB,D6470C00005-0015,37,HGB,Hemoglobin,HEMATOLOGY,SERUM,164.0,g/L,164.0,164.0,g/L,120,160,N,5,DAY 31 (TP2),TREATMENT,2021-01-19,32
D6470C00005,LB,D6470C00005-0015,38,HCT,Hematocrit,HEMATOLOGY,SERUM,0.42,1,0.42,0.42,1,0.36,0.48,N,5,DAY 31 (TP2),TREATMENT,2021-01-19,32
D6470C00005,LB,D6470C00005-0015,39,K,Potassium,URINALYSIS,URINE,42.0,mmol/L,42.0,42.0,mmol/L,,,N,5,DAY 31 (TP2),TREATMENT,2021-01-19,32
D6470C00005,LB,D6470C00005-0015,40,SODIUM,Sodium,URINALYSIS,URINE,179.0,mmol/L,179.0,179.0,mmol/L,,,N,5,DAY 31 (TP2),TREATMENT,2021-01-19,32
D6470C00005,LB,D6470C00005-0015,41,GLUC,Glucose,CHEMISTRY,SERUM,11.9,mmol/L,11.9,11.9,mmol/L,4.1,5.9,Y,6,FOLLOW-UP,FOLLOW-UP,2021-02-18,62
D6470C00005,LB,D6470C00005-0015,42,INSULIN,Insulin,CHEMISTRY,SERUM,97.0,pmol/L,97.0,97.0,pmol/L,18,173,Y,6,FOLLOW-UP,FOLLOW-UP,2021-02-18,62
D6470C00005,LB,D6470C00005-0015,43,CPEPTIDE,C-Peptide,CHEMISTRY,SERUM,1.0,nmol/L,1.0,1.0,nmol/L,0.37,1.47,Y,6,FOLLOW-UP,FOLLOW-UP,2021-02-18,62
D6470C00005,LB,D6470C00005-0015,44,HBA1C,Hemoglobin A1C,CHEMISTRY,SERUM,9.0,%,9.0,9.0,%,4.0,6.0,Y,6,FOLLOW-UP,FOLLOW-UP,2021-02-18,62
D6470C00005,LB,D6470C00005-0015,45,CHOL,Cholesterol,CHEMISTRY,SERUM,6.8,mmol/L,6.8,6.8,mmol/L,0,5.2,Y,6,FOLLOW-UP,FOLLOW-UP,2021-02-18,62
D6470C00005,LB,D6470C00005-0015,46,TRIG,Triglycerides,CHEMISTRY,SERUM,2.6,mmol/L,2.6,2.6,mmol/L,0,1.7,Y,6,FOLLOW-UP,FOLLOW-UP,2021-02-18,62
D6470C00005,LB,D6470C00005-0015,47,HDL,HDL Cholesterol,CHEMISTRY,SERUM,1.09,mmol/L,1.09,1.09,mmol/L,1.0,2.2,Y,6,FOLLOW-UP,FOLLOW-UP,2021-02-18,62
D6470C00005,LB,D6470C00005-0015,48,SODIUM,Sodium,CHEMISTRY,SERUM,145.0,mmol/L,145.0,145.0,mmol/L,136,145,Y,6,FOLLOW-UP,FOLLOW-UP,2021-02-18,62
D6470C00005,LB,D6470C00005-0015,49,K,Potassium,CHEMISTRY,SERUM,4.1,mmol/L,4.1,4.1,mmol/L,3.5,5.1,Y,6,FOLLOW-UP,FOLLOW-UP,2021-02-18,62
D6470C00005,LB,D6470C00005-0015,50,CORTISOL,Cortisol,CHEMISTRY,SERUM,387.0,nmol/L,387.0,387.0,nmol/L,138,635,Y,6,FOLLOW-UP,FOLLOW-UP,2021-02-18,62
D6470C00005,LB,D6470C00005-0015,51,HGB,Hemoglobin,HEMATOLOGY,SERUM,130.0,g/L,130.0,130.0,g/L,120,160,N,6,FOLLOW-UP,FOLLOW-UP,2021-02-18,62
D6470C00005,LB,D6470C00005-0015,52,HCT,Hematocrit,HEMATOLOGY,SERUM,0.39,1,0.39,0.39,1,0.36,0.48,N,6,FOLLOW-UP,FOLLOW-UP,2021-02-18,62
D6470C00005,LB,D6470C00005-0016,1,GLUC,Glucose,CHEMISTRY,SERUM,11.9,mmol/L,11.9,11.9,mmol/L,4.1,5.9,Y,1,SCREENING,SCREENING,2021-03-05,-14
D6470C00005,LB,D6470C00005-0016,2,INSULIN,Insulin,CHEMISTRY,SERUM,123.0,pmol/L,123.0,123.0,pmol/L,18,173,Y,1,SCREENING,SCREENING,2021-03-05,-14
D6470C00005,LB,D6470C00005-0016,3,CPEPTIDE,C-Peptide,CHEMISTRY,SERUM,1.55,nmol/L,1.55,1.55,nmol/L,0.37,1.47,Y,1,SCREENING,SCREENING,2021-03-05,-14
D6470C00005,LB,D6470C00005-0016,4,HBA1C,Hemoglobin A1C,CHEMISTRY,SERUM,7.9,%,7.9,7.9,%,4.0,6.0,Y,1,SCREENING,SCREENING,2021-03-05,-14
D6470C00005,LB,D6470C00005-0016,5,CHOL,Cholesterol,CHEMISTRY,SERUM,5.5,mmol/L,5.5,5.5,mmol/L,0,5.2,Y,1,SCREENING,SCREENING,2021-03-05,-14
D6470C00005,LB,D6470C00005-0016,6,TRIG,Triglycerides,CHEMISTRY,SERUM,2.84,mmol/L,2.84,2.84,mmol/L,0,1.7,Y,1,SCREENING,SCREENING,2021-03-05,-14
D6470C00005,LB,D6470C00005-0016,7,HDL,HDL Cholesterol,CHEMISTRY,SERUM,0.98,mmol/L,0.98,0.98,mmol/L,1.0,2.2,Y,1,SCREENING,SCREENING,2021-03-05,-14
D6470C00005,LB,D6470C00005-0016,8,SODIUM,Sodium,CHEMISTRY,SERUM,141.0,mmol/L,141.0,141.0,mmol/L,136,145,Y,1,SCREENING,SCREENING,2021-03-05,-14
D6470C00005,LB,D6470C00005-0016,9,K,Potassium,CHEMISTRY,SERUM,3.9,mmol/L,3.9,3.9,mmol/L,3.5,5.1,Y,1,SCREENING,SCREENING,2021-03-05,-14
D6470C00005,LB,D6470C00005-0016,10,CORTISOL,Cortisol,CHEMISTRY,SERUM,406.0,nmol/L,406.0,406.0,nmol/L,138,635,Y,1,SCREENING,SCREENING,2021-03-05,-14
D6470C00005,LB,D6470C00005-0016,11,HGB,Hemoglobin,HEMATOLOGY,SERUM,159.0,g/L,159.0,159.0,g/L,120,160,N,1,SCREENING,SCREENING,2021-03-05,-14
D6470C00005,LB,D6470C00005-0016,12,HCT,Hematocrit,HEMATOLOGY,SERUM,0.44,1,0.44,0.44,1,0.36,0.48,N,1,SCREENING,SCREENING,2021-03-05,-14
D6470C00005,LB,D6470C00005-0016,13,GLUC,Glucose,CHEMISTRY,SERUM,12.0,mmol/L,12.0,12.0,mmol/L,4.1,5.9,Y,3,DAY 4 (TP1),TREATMENT,2021-03-23,5
D6470C00005,LB,D6470C00005-0016,14,INSULIN,Insulin,CHEMISTRY,SERUM,51.0,pmol/L,51.0,51.0,pmol/L,18,173,Y,3,DAY 4 (TP1),TREATMENT,2021-03-23,5
D6470C00005,LB,D6470C00005-0016,15,CPEPTIDE,C-Peptide,CHEMISTRY,SERUM,1.56,nmol/L,1.56,1.56,nmol/L,0.37,1.47,Y,3,DAY 4 (TP1),TREATMENT,2021-03-23,5
D6470C00005,LB,D6470C00005-0016,16,HBA1C,Hemoglobin A1C,CHEMISTRY,SERUM,7.0,%,7.0,7.0,%,4.0,6.0,Y,3,DAY 4 (TP1),TREATMENT,2021-03-23,5
D6470C00005,LB,D6470C00005-0016,17,CHOL,Cholesterol,CHEMISTRY,SERUM,4.5,mmol/L,4.5,4.5,mmol/L,0,5.2,Y,3,DAY 4 (TP1),TREATMENT,2021-03-23,5
D6470C00005,LB,D6470C00005-0016,18,TRIG,Triglycerides,CHEMISTRY,SERUM,1.21,mmol/L,1.21,1.21,mmol/L,0,1.7,Y,3,DAY 4 (TP1),TREATMENT,2021-03-23,5
D6470C00005,LB,D6470C00005-0016,19,HDL,HDL Cholesterol,CHEMISTRY,SERUM,0.87,mmol/L,0.87,0.87,mmol/L,1.0,2.2,Y,3,DAY 4 (TP1),TREATMENT,2021-03-23,5
D6470C00005,LB,D6470C00005-0016,20,SODIUM,Sodium,CHEMISTRY,SERUM,143.0,mmol/L,143.0,143.0,mmol/L,136,145,Y,3,DAY 4 (TP1),TREATMENT,2021-03-23,5
D6470C00005,LB,D6470C00005-0016,21,K,Potassium,CHEMISTRY,SERUM,4.8,mmol/L,4.8,4.8,mmol/L,3.5,5.1,Y,3,DAY 4 (TP1),TREATMENT,2021-03-23,5
D6470C00005,LB,D6470C00005-0016,22,CORTISOL,Cortisol,CHEMISTRY,SERUM,152.0,nmol/L,152.0,152.0,nmol/L,138,635,Y,3,DAY 4 (TP1),TREATMENT,2021-03-23,5
D6470C00005,LB,D6470C00005-0016,23,HGB,Hemoglobin,HEMATOLOGY,SERUM,130.0,g/L,130.0,130.0,g/L,120,160,N,3,DAY 4 (TP1),TREATMENT,2021-03-23,5
D6470C00005,LB,D6470C00005-0016,24,HCT,Hematocrit,HEMATOLOGY,SERUM,0.44,1,0.44,0.44,1,0.36,0.48,N,3,DAY 4 (TP1),TREATMENT,2021-03-23,5
D6470C00005,LB,D6470C00005-0016,25,K,Potassium,URINALYSIS,URINE,56.0,mmol/L,56.0,56.0,mmol/L,,,N,3,DAY 4 (TP1),TREATMENT,2021-03-23,5
D6470C00005,LB,D6470C00005-0016,26,SODIUM,Sodium,URINALYSIS,URINE,133.0,mmol/L,133.0,133.0,mmol/L,,,N,3,DAY 4 (TP1),TREATMENT,2021-03-23,5
D6470C00005,LB,D6470C00005-0016,27,GLUC,Glucose,CHEMISTRY,SERUM,7.6,mmol/L,7.6,7.6,mmol/L,4.1,5.9,Y,5,DAY 31 (TP2),TREATMENT,2021-04-19,32
D6470C00005,LB,D6470C00005-0016,28,INSULIN,Insulin,CHEMISTRY,SERUM,51.0,pmol/L,51.0,51.0,pmol/L,18,173,Y,5,DAY 31 (TP2),TREATMENT,2021-04-19,32
D6470C00005,LB,D6470C00005-0016,29,CPEPTIDE,C-Peptide,CHEMISTRY,SERUM,1.1,nmol/L,1.1,1.1,nmol/L,0.37,1.47,Y,5,DAY 31 (TP2),TREATMENT,2021-04-19,32
D6470C00005,LB,D6470C00005-0016,30,HBA1C,Hemoglobin A1C,CHEMISTRY,SERUM,8.6,%,8.6,8.6,%,4.0,6.0,Y,5,DAY 31 (TP2),TREATMENT,2021-04-19,32
D6470C00005,LB,D6470C00005-0016,31,CHOL,Cholesterol,CHEMISTRY,SERUM,5.3,mmol/L,5.3,5.3,mmol/L,0,5.2,Y,5,DAY 31 (TP2),TREATMENT,2021-04-19,32
D6470C00005,LB,D6470C00005-0016,32,TRIG,Triglycerides,CHEMISTRY,SERUM,2.41,mmol/L,2.41,2.41,mmol/L,0,1.7,Y,5,DAY 31 (TP2),TREATMENT,2021-04-19,32
D6470C00005,LB,D6470C00005-0016,33,HDL,HDL Cholesterol,CHEMISTRY,SERUM,0.88,mmol/L,0.88,0.88,mmol/L,1.0,2.2,Y,5,DAY 31 (TP2),TREATMENT,2021-04-19,32
D6470C00005,LB,D6470C00005-0016,34,SODIUM,Sodium,CHEMISTRY,SERUM,143.0,mmol/L,143.0,143.0,mmol/L,136,145,Y,5,DAY 31 (TP2),TREATMENT,2021-04-19,32
D6470C00005,LB,D6470C00005-0016,35,K,Potassium,CHEMISTRY,SERUM,4.7,mmol/L,4.7,4.7,mmol/L,3.5,5.1,Y,5,DAY 31 (TP2),TREATMENT,2021-04-19,32
D6470C00005,LB,D6470C00005-0016,36,CORTISOL,Cortisol,CHEMISTRY,SERUM,465.0,nmol/L,465.0,465.0,nmol/L,138,635,Y,5,DAY 31 (TP2),TREATMENT,2021-04-19,32
D6470C00005,LB,D6470C00005-0016,37,HGB,Hemoglobin,HEMATOLOGY,SERUM,123.0,g/L,123.0,123.0,g/L,120,160,N,5,DAY 31 (TP2),TREATMENT,2021-04-19,32
D6470C00005,LB,D6470C00005-0016,38,HCT,Hematocrit,HEMATOLOGY,SERUM,0.44,1,0.44,0.44,1,0.36,0.48,N,5,DAY 31 (TP2),TREATMENT,2021-04-19,32
D6470C00005,LB,D6470C00005-0016,39,K,Potassium,URINALYSIS,URINE,22.0,mmol/L,22.0,22.0,mmol/L,,,N,5,DAY 31 (TP2),TREATMENT,2021-04-19,32
D6470C00005,LB,D6470C00005-0016,40,SODIUM,Sodium,URINALYSIS,URINE,114.0,mmol/L,114.0,114.0,mmol/L,,,N,5,DAY 31 (TP2),TREATMENT,2021-04-19,32
D6470C00005,LB,D6470C00005-0016,41,GLUC,Glucose,CHEMISTRY,SERUM,10.6,mmol/L,10.6,10.6,mmol/L,4.1,5.9,Y,6,FOLLOW-UP,FOLLOW-UP,2021-05-19,62
D6470C00005,LB,D6470C00005-0016,42,INSULIN,Insulin,CHEMISTRY,SERUM,134.0,pmol/L,134.0,134.0,pmol/L,18,173,Y,6,FOLLOW-UP,FOLLOW-UP,2021-05-19,62
D6470C00005,LB,D6470C00005-0016,43,CPEPTIDE,C-Peptide,CHEMISTRY,SERUM,0.89,nmol/L,0.89,0.89,nmol/L,0.37,1.47,Y,6,FOLLOW-UP,FOLLOW-UP,2021-05-19,62
D6470C00005,LB,D6470C00005-0016,44,HBA1C,Hemoglobin A1C,CHEMISTRY,SERUM,7.2,%,7.2,7.2,%,4.0,6.0,Y,6,FOLLOW-UP,FOLLOW-UP,2021-05-19,62
D6470C00005,LB,D6470C00005-0016,45,CHOL,Cholesterol,CHEMISTRY,SERUM,4.8,mmol/L,4.8,4.8,mmol/L,0,5.2,Y,6,FOLLOW-UP,FOLLOW-UP,2021-05-19,62
D6470C00005,LB,D6470C00005-0016,46,TRIG,Triglycerides,CHEMISTRY,SERUM,2.19,mmol/L,2.19,2.19,mmol/L,0,1.7,Y,6,FOLLOW-UP,FOLLOW-UP,2021-05-19,62
D6470C00005,LB,D6470C00005-0016,47,HDL,HDL Cholesterol,CHEMISTRY,SERUM,1.2,mmol/L,1.2,1.2,mmol/L,1.0,2.2,Y,6,FOLLOW-UP,FOLLOW-UP,2021-05-19,62
D6470C00005,LB,D6470C00005-0016,48,SODIUM,Sodium,CHEMISTRY,SERUM,142.0,mmol/L,142.0,142.0,mmol/L,136,145,Y,6,FOLLOW-UP,FOLLOW-UP,2021-05-19,62
D6470C00005,LB,D6470C00005-0016,49,K,Potassium,CHEMISTRY,SERUM,3.6,mmol/L,3.6,3.6,mmol/L,3.5,5.1,Y,6,FOLLOW-UP,FOLLOW-UP,2021-05-19,62
D6470C00005,LB,D6470C00005-0016,50,CORTISOL,Cortisol,CHEMISTRY,SERUM,251.0,nmol/L,251.0,251.0,nmol/L,138,635,Y,6,FOLLOW-UP,FOLLOW-UP,2021-05-19,62
D6470C00005,LB,D6470C00005-0016,51,HGB,Hemoglobin,HEMATOLOGY,SERUM,128.0,g/L,128.0,128.0,g/L,120,160,N,6,FOLLOW-UP,FOLLOW-UP,2021-05-19,62
D6470C00005,LB,D6470C00005-0016,52,HCT,Hematocrit,HEMATOLOGY,SERUM,0.41,1,0.41,0.41,1,0.36,0.48,N,6,FOLLOW-UP,FOLLOW-UP,2021-05-19,62
D6470C00005,LB,D6470C00005-0017,1,GLUC,Glucose,CHEMISTRY,SERUM,9.9,mmol/L,9.9,9.9,mmol/L,4.1,5.9,Y,1,SCREENING,SCREENING,2020-12-17,-14
D6470C00005,LB,D6470C00005-0017,2,INSULIN,Insulin,CHEMISTRY,SERUM,111.0,pmol/L,111.0,111.0,pmol/L,18,173,Y,1,SCREENING,SCREENING,2020-12-17,-14
D6470C00005,LB,D6470C00005-0017,3,CPEPTIDE,C-Peptide,CHEMISTRY,SERUM,1.46,nmol/L,1.46,1.46,nmol/L,0.37,1.47,Y,1,SCREENING,SCREENING,2020-12-17,-14
D6470C00005,LB,D6470C00005-0017,4,HBA1C,Hemoglobin A1C,CHEMISTRY,SERUM,8.0,%,8.0,8.0,%,4.0,6.0,Y,1,SCREENING,SCREENING,2020-12-17,-14
D6470C00005,LB,D6470C00005-0017,5,CHOL,Cholesterol,CHEMISTRY,SERUM,4.3,mmol/L,4.3,4.3,mmol/L,0,5.2,Y,1,SCREENING,SCREENING,2020-12-17,-14
D6470C00005,LB,D6470C00005-0017,6,TRIG,Triglycerides,CHEMISTRY,SERUM,1.42,mmol/L,1.42,1.42,mmol/L,0,1.7,Y,1,SCREENING,SCREENING,2020-12-17,-14
D6470C00005,LB,D6470C00005-0017,7,HDL,HDL Cholesterol,CHEMISTRY,SERUM,1.33,mmol/L,1.33,1.33,mmol/L,1.0,2.2,Y,1,SCREENING,SCREENING,2020-12-17,-14
D6470C00005,LB,D6470C00005-0017,8,SODIUM,Sodium,CHEMISTRY,SERUM,137.0,mmol/L,137.0,137.0,mmol/L,136,145,Y,1,SCREENING,SCREENING,2020-12-17,-14
D6470C00005,LB,D6470C00005-0017,9,K,Potassium,CHEMISTRY,SERUM,3.9,mmol/L,3.9,3.9,mmol/L,3.5,5.1,Y,1,SCREENING,SCREENING,2020-12-17,-14
D6470C00005,LB,D6470C00005-0017,10,CORTISOL,Cortisol,CHEMISTRY,SERUM,196.0,nmol/L,196.0,196.0,nmol/L,138,635,Y,1,SCREENING,SCREENING,2020-12-17,-14
D6470C00005,LB,D6470C00005-0017,11,HGB,Hemoglobin,HEMATOLOGY,SERUM,157.0,g/L,157.0,157.0,g/L,120,160,N,1,SCREENING,SCREENING,2020-12-17,-14
D6470C00005,LB,D6470C00005-0017,12,HCT,Hematocrit,HEMATOLOGY,SERUM,0.4,1,0.4,0.4,1,0.36,0.48,N,1,SCREENING,SCREENING,2020-12-17,-14
D6470C00005,LB,D6470C00005-0017,13,GLUC,Glucose,CHEMISTRY,SERUM,10.8,mmol/L,10.8,10.8,mmol/L,4.1,5.9,Y,3,DAY 4 (TP1),TREATMENT,2021-01-04,5
D6470C00005,LB,D6470C00005-0017,14,INSULIN,Insulin,CHEMISTRY,SERUM,153.0,pmol/L,153.0,153.0,pmol/L,18,173,Y,3,DAY 4 (TP1),TREATMENT,2021-01-04,5
D6470C00005,LB,D6470C00005-0017,15,CPEPTIDE,C-Peptide,CHEMISTRY,SERUM,1.56,nmol/L,1.56,1.56,nmol/L,0.37,1.47,Y,3,DAY 4 (TP1),TREATMENT,2021-01-04,5
D6470C00005,LB,D6470C00005-0017,16,HBA1C,Hemoglobin A1C,CHEMISTRY,SERUM,8.8,%,8.8,8.8,%,4.0,6.0,Y,3,DAY 4 (TP1),TREATMENT,2021-01-04,5
D6470C00005,LB,D6470C00005-0017,17,CHOL,Cholesterol,CHEMISTRY,SERUM,3.9,mmol/L,3.9,3.9,mmol/L,0,5.2,Y,3,DAY 4 (TP1),TREATMENT,2021-01-04,5
D6470C00005,LB,D6470C00005-0017,18,TRIG,Triglycerides,CHEMISTRY,SERUM,1.96,mmol/L,1.96,1.96,mmol/L,0,1.7,Y,3,DAY 4 (TP1),TREATMENT,2021-01-04,5
D6470C00005,LB,D6470C00005-0017,19,HDL,HDL Cholesterol,CHEMISTRY,SERUM,1.11,mmol/L,1.11,1.11,mmol/L,1.0,2.2,Y,3,DAY 4 (TP1),TREATMENT,2021-01-04,5
D6470C00005,LB,D6470C00005-0017,20,SODIUM,Sodium,CHEMISTRY,SERUM,136.0,mmol/L,136.0,136.0,mmol/L,136,145,Y,3,DAY 4 (TP1),TREATMENT,2021-01-04,5
D6470C00005,LB,D6470C00005-0017,21,K,Potassium,CHEMISTRY,SERUM,4.5,mmol/L,4.5,4.5,mmol/L,3.5,5.1,Y,3,DAY 4 (TP1),TREATMENT,2021-01-04,5
D6470C00005,LB,D6470C00005-0017,22,CORTISOL,Cortisol,CHEMISTRY,SERUM,451.0,nmol/L,451.0,451.0,nmol/L,138,635,Y,3,DAY 4 (TP1),TREATMENT,2021-01-04,5
D6470C00005,LB,D6470C00005-0017,23,HGB,Hemoglobin,HEMATOLOGY,SERUM,136.0,g/L,136.0,136.0,g/L,120,160,N,3,DAY 4 (TP1),TREATMENT,2021-01-04,5
D6470C00005,LB,D6470C00005-0017,24,HCT,Hematocrit,HEMATOLOGY,SERUM,0.45,1,0.45,0.45,1,0.36,0.48,N,3,DAY 4 (TP1),TREATMENT,2021-01-04,5
D6470C00005,LB,D6470C00005-0017,25,K,Potassium,URINALYSIS,URINE,72.0,mmol/L,72.0,72.0,mmol/L,,,N,3,DAY 4 (TP1),TREATMENT,2021-01-04,5
D6470C00005,LB,D6470C00005-0017,26,SODIUM,Sodium,URINALYSIS,URINE,97.0,mmol/L,97.0,97.0,mmol/L,,,N,3,DAY 4 (TP1),TREATMENT,2021-01-04,5
D6470C00005,LB,D6470C00005-0017,27,GLUC,Glucose,CHEMISTRY,SERUM,11.8,mmol/L,11.8,11.8,mmol/L,4.1,5.9,Y,5,DAY 31 (TP2),TREATMENT,2021-01-31,32
D6470C00005,LB,D6470C00005-0017,28,INSULIN,Insulin,CHEMISTRY,SERUM,107.0,pmol/L,107.0,107.0,pmol/L,18,173,Y,5,DAY 31 (TP2),TREATMENT,2021-01-31,32
D6470C00005,LB,D6470C00005-0017,29,CPEPTIDE,C-Peptide,CHEMISTRY,SERUM,1.07,nmol/L,1.07,1.07,nmol/L,0.37,1.47,Y,5,DAY 31 (TP2),TREATMENT,2021-01-31,32
D6470C00005,LB,D6470C00005-0017,30,HBA1C,Hemoglobin A1C,CHEMISTRY,SERUM,8.3,%,8.3,8.3,%,4.0,6.0,Y,5,DAY 31 (TP2),TREATMENT,2021-01-31,32
D6470C00005,LB,D6470C00005-0017,31,CHOL,Cholesterol,CHEMISTRY,SERUM,5.0,mmol/L,5.0,5.0,mmol/L,0,5.2,Y,5,DAY 31 (TP2),TREATMENT,2021-01-31,32
D6470C00005,LB,D6470C00005-0017,32,TRIG,Triglycerides,CHEMISTRY,SERUM,2.43,mmol/L,2.43,2.43,mmol/L,0,1.7,Y,5,DAY 31 (TP2),TREATMENT,2021-01-31,32
D6470C00005,LB,D6470C00005-0017,33,HDL,HDL Cholesterol,CHEMISTRY,SERUM,1.48,mmol/L,1.48,1.48,mmol/L,1.0,2.2,Y,5,DAY 31 (TP2),TREATMENT,2021-01-31,32
D6470C00005,LB,D6470C00005-0017,34,SODIUM,Sodium,CHEMISTRY,SERUM,142.0,mmol/L,142.0,142.0,mmol/L,136,145,Y,5,DAY 31 (TP2),TREATMENT,2021-01-31,32
D6470C00005,LB,D6470C00005-0017,35,K,Potassium,CHEMISTRY,SERUM,4.2,mmol/L,4.2,4.2,mmol/L,3.5,5.1,Y,5,DAY 31 (TP2),TREATMENT,2021-01-31,32
D6470C00005,LB,D6470C00005-0017,36,CORTISOL,Cortisol,CHEMISTRY,SERUM,258.0,nmol/L,258.0,258.0,nmol/L,138,635,Y,5,DAY 31 (TP2),TREATMENT,2021-01-31,32
D6470C00005,LB,D6470C00005-0017,37,HGB,Hemoglobin,HEMATOLOGY,SERUM,163.0,g/L,163.0,163.0,g/L,120,160,N,5,DAY 31 (TP2),TREATMENT,2021-01-31,32
D6470C00005,LB,D6470C00005-0017,38,HCT,Hematocrit,HEMATOLOGY,SERUM,0.43,1,0.43,0.43,1,0.36,0.48,N,5,DAY 31 (TP2),TREATMENT,2021-01-31,32
D6470C00005,LB,D6470C00005-0017,39,K,Potassium,URINALYSIS,URINE,54.0,mmol/L,54.0,54.0,mmol/L,,,N,5,DAY 31 (TP2),TREATMENT,2021-01-31,32
D6470C00005,LB,D6470C00005-0017,40,SODIUM,Sodium,URINALYSIS,URINE,181.0,mmol/L,181.0,181.0,mmol/L,,,N,5,DAY 31 (TP2),TREATMENT,2021-01-31,32
D6470C00005,LB,D6470C00005-0017,41,GLUC,Glucose,CHEMISTRY,SERUM,10.3,mmol/L,10.3,10.3,mmol/L,4.1,5.9,Y,6,FOLLOW-UP,FOLLOW-UP,2021-03-02,62
D6470C00005,LB,D6470C00005-0017,42,INSULIN,Insulin,CHEMISTRY,SERUM,108.0,pmol/L,108.0,108.0,pmol/L,18,173,Y,6,FOLLOW-UP,FOLLOW-UP,2021-03-02,62
D6470C00005,LB,D6470C00005-0017,43,CPEPTIDE,C-Peptide,CHEMISTRY,SERUM,1.0,nmol/L,1.0,1.0,nmol/L,0.37,1.47,Y,6,FOLLOW-UP,FOLLOW-UP,2021-03-02,62
D6470C00005,LB,D6470C00005-0017,44,HBA1C,Hemoglobin A1C,CHEMISTRY,SERUM,6.1,%,6.1,6.1,%,4.0,6.0,Y,6,FOLLOW-UP,FOLLOW-UP,2021-03-02,62
D6470C00005,LB,D6470C00005-0017,45,CHOL,Cholesterol,CHEMISTRY,SERUM,4.8,mmol/L,4.8,4.8,mmol/L,0,5.2,Y,6,FOLLOW-UP,FOLLOW-UP,2021-03-02,62
D6470C00005,LB,D6470C00005-0017,46,TRIG,Triglycerides,CHEMISTRY,SERUM,1.68,mmol/L,1.68,1.68,mmol/L,0,1.7,Y,6,FOLLOW-UP,FOLLOW-UP,2021-03-02,62
D6470C00005,LB,D6470C00005-0017,47,HDL,HDL Cholesterol,CHEMISTRY,SERUM,0.92,mmol/L,0.92,0.92,mmol/L,1.0,2.2,Y,6,FOLLOW-UP,FOLLOW-UP,2021-03-02,62
D6470C00005,LB,D6470C00005-0017,48,SODIUM,Sodium,CHEMISTRY,SERUM,139.0,mmol/L,139.0,139.0,mmol/L,136,145,Y,6,FOLLOW-UP,FOLLOW-UP,2021-03-02,62
D6470C00005,LB,D6470C00005-0017,49,K,Potassium,CHEMISTRY,SERUM,4.0,mmol/L,4.0,4.0,mmol/L,3.5,5.1,Y,6,FOLLOW-UP,FOLLOW-UP,2021-03-02,62
D6470C00005,LB,D6470C00005-0017,50,CORTISOL,Cortisol,CHEMISTRY,SERUM,275.0,nmol/L,275.0,275.0,nmol/L,138,635,Y,6,FOLLOW-UP,FOLLOW-UP,2021-03-02,62
D6470C00005,LB,D6470C00005-0017,51,HGB,Hemoglobin,HEMATOLOGY,SERUM,142.0,g/L,142.0,142.0,g/L,120,160,N,6,FOLLOW-UP,FOLLOW-UP,2021-03-02,62
D6470C00005,LB,D6470C00005-0017,52,HCT,Hematocrit,HEMATOLOGY,SERUM,0.47,1,0.47,0.47,1,0.36,0.48,N,6,FOLLOW-UP,FOLLOW-UP,2021-03-02,62
D6470C00005,LB,D6470C00005-0018,1,GLUC,Glucose,CHEMISTRY,SERUM,11.6,mmol/L,11.6,11.6,mmol/L,4.1,5.9,Y,1,SCREENING,SCREENING,2021-03-22,-14
D6470C00005,LB,D6470C00005-0018,2,INSULIN,Insulin,CHEMISTRY,SERUM,66.0,pmol/L,66.0,66.0,pmol/L,18,173,Y,1,SCREENING,SCREENING,2021-03-22,-14
D6470C00005,LB,D6470C00005-0018,3,CPEPTIDE,C-Peptide,CHEMISTRY,SERUM,1.45,nmol/L,1.45,1.45,nmol/L,0.37,1.47,Y,1,SCREENING,SCREENING,2021-03-22,-14
D6470C00005,LB,D6470C00005-0018,4,HBA1C,Hemoglobin A1C,CHEMISTRY,SERUM,8.2,%,8.2,8.2,%,4.0,6.0,Y,1,SCREENING,SCREENING,2021-03-22,-14
D6470C00005,LB,D6470C00005-0018,5,CHOL,Cholesterol,CHEMISTRY,SERUM,4.7,mmol/L,4.7,4.7,mmol/L,0,5.2,Y,1,SCREENING,SCREENING,2021-03-22,-14
D6470C00005,LB,D6470C00005-0018,6,TRIG,Triglycerides,CHEMISTRY,SERUM,1.58,mmol/L,1.58,1.58,mmol/L,0,1.7,Y,1,SCREENING,SCREENING,2021-03-22,-14
D6470C00005,LB,D6470C00005-0018,7,HDL,HDL Cholesterol,CHEMISTRY,SERUM,0.97,mmol/L,0.97,0.97,mmol/L,1.0,2.2,Y,1,SCREENING,SCREENING,2021-03-22,-14
D6470C00005,LB,D6470C00005-0018,8,SODIUM,Sodium,CHEMISTRY,SERUM,136.0,mmol/L,136.0,136.0,mmol/L,136,145,Y,1,SCREENING,SCREENING,2021-03-22,-14
D6470C00005,LB,D6470C00005-0018,9,K,Potassium,CHEMISTRY,SERUM,3.7,mmol/L,3.7,3.7,mmol/L,3.5,5.1,Y,1,SCREENING,SCREENING,2021-03-22,-14
D6470C00005,LB,D6470C00005-0018,10,CORTISOL,Cortisol,CHEMISTRY,SERUM,389.0,nmol/L,389.0,389.0,nmol/L,138,635,Y,1,SCREENING,SCREENING,2021-03-22,-14
D6470C00005,LB,D6470C00005-0018,11,HGB,Hemoglobin,HEMATOLOGY,SERUM,156.0,g/L,156.0,156.0,g/L,120,160,N,1,SCREENING,SCREENING,2021-03-22,-14
D6470C00005,LB,D6470C00005-0018,12,HCT,Hematocrit,HEMATOLOGY,SERUM,0.42,1,0.42,0.42,1,0.36,0.48,N,1,SCREENING,SCREENING,2021-03-22,-14
D6470C00005,LB,D6470C00005-0018,13,GLUC,Glucose,CHEMISTRY,SERUM,11.6,mmol/L,11.6,11.6,mmol/L,4.1,5.9,Y,3,DAY 4 (TP1),TREATMENT,2021-04-09,5
D6470C00005,LB,D6470C00005-0018,14,INSULIN,Insulin,CHEMISTRY,SERUM,114.0,pmol/L,114.0,114.0,pmol/L,18,173,Y,3,DAY 4 (TP1),TREATMENT,2021-04-09,5
D6470C00005,LB,D6470C00005-0018,15,CPEPTIDE,C-Peptide,CHEMISTRY,SERUM,1.59,nmol/L,1.59,1.59,nmol/L,0.37,1.47,Y,3,DAY 4 (TP1),TREATMENT,2021-04-09,5
D6470C00005,LB,D6470C00005-0018,16,HBA1C,Hemoglobin A1C,CHEMISTRY,SERUM,7.9,%,7.9,7.9,%,4.0,6.0,Y,3,DAY 4 (TP1),TREATMENT,2021-04-09,5
D6470C00005,LB,D6470C00005-0018,17,CHOL,Cholesterol,CHEMISTRY,SERUM,4.3,mmol/L,4.3,4.3,mmol/L,0,5.2,Y,3,DAY 4 (TP1),TREATMENT,2021-04-09,5
D6470C00005,LB,D6470C00005-0018,18,TRIG,Triglycerides,CHEMISTRY,SERUM,1.21,mmol/L,1.21,1.21,mmol/L,0,1.7,Y,3,DAY 4 (TP1),TREATMENT,2021-04-09,5
D6470C00005,LB,D6470C00005-0018,19,HDL,HDL Cholesterol,CHEMISTRY,SERUM,1.67,mmol/L,1.67,1.67,mmol/L,1.0,2.2,Y,3,DAY 4 (TP1),TREATMENT,2021-04-09,5
D6470C00005,LB,D6470C00005-0018,20,SODIUM,Sodium,CHEMISTRY,SERUM,141.0,mmol/L,141.0,141.0,mmol/L,136,145,Y,3,DAY 4 (TP1),TREATMENT,2021-04-09,5
D6470C00005,LB,D6470C00005-0018,21,K,Potassium,CHEMISTRY,SERUM,4.0,mmol/L,4.0,4.0,mmol/L,3.5,5.1,Y,3,DAY 4 (TP1),TREATMENT,2021-04-09,5
D6470C00005,LB,D6470C00005-0018,22,CORTISOL,Cortisol,CHEMISTRY,SERUM,254.0,nmol/L,254.0,254.0,nmol/L,138,635,Y,3,DAY 4 (TP1),TREATMENT,2021-04-09,5
D6470C00005,LB,D6470C00005-0018,23,HGB,Hemoglobin,HEMATOLOGY,SERUM,120.0,g/L,120.0,120.0,g/L,120,160,N,3,DAY 4 (TP1),TREATMENT,2021-04-09,5
D6470C00005,LB,D6470C00005-0018,24,HCT,Hematocrit,HEMATOLOGY,SERUM,0.46,1,0.46,0.46,1,0.36,0.48,N,3,DAY 4 (TP1),TREATMENT,2021-04-09,5
D6470C00005,LB,D6470C00005-0018,25,K,Potassium,URINALYSIS,URINE,72.0,mmol/L,72.0,72.0,mmol/L,,,N,3,DAY 4 (TP1),TREATMENT,2021-04-09,5
D6470C00005,LB,D6470C00005-0018,26,SODIUM,Sodium,URINALYSIS,URINE,44.0,mmol/L,44.0,44.0,mmol/L,,,N,3,DAY 4 (TP1),TREATMENT,2021-04-09,5
D6470C00005,LB,D6470C00005-0018,27,GLUC,Glucose,CHEMISTRY,SERUM,10.3,mmol/L,10.3,10.3,mmol/L,4.1,5.9,Y,5,DAY 31 (TP2),TREATMENT,2021-05-06,32
D6470C00005,LB,D6470C00005-0018,28,INSULIN,Insulin,CHEMISTRY,SERUM,101.0,pmol/L,101.0,101.0,pmol/L,18,173,Y,5,DAY 31 (TP2),TREATMENT,2021-05-06,32
D6470C00005,LB,D6470C00005-0018,29,CPEPTIDE,C-Peptide,CHEMISTRY,SERUM,1.17,nmol/L,1.17,1.17,nmol/L,0.37,1.47,Y,5,DAY 31 (TP2),TREATMENT,2021-05-06,32
D6470C00005,LB,D6470C00005-0018,30,HBA1C,Hemoglobin A1C,CHEMISTRY,SERUM,8.1,%,8.1,8.1,%,4.0,6.0,Y,5,DAY 31 (TP2),TREATMENT,2021-05-06,32
D6470C00005,LB,D6470C00005-0018,31,CHOL,Cholesterol,CHEMISTRY,SERUM,6.7,mmol/L,6.7,6.7,mmol/L,0,5.2,Y,5,DAY 31 (TP2),TREATMENT,2021-05-06,32
D6470C00005,LB,D6470C00005-0018,32,TRIG,Triglycerides,CHEMISTRY,SERUM,1.66,mmol/L,1.66,1.66,mmol/L,0,1.7,Y,5,DAY 31 (TP2),TREATMENT,2021-05-06,32
D6470C00005,LB,D6470C00005-0018,33,HDL,HDL Cholesterol,CHEMISTRY,SERUM,1.58,mmol/L,1.58,1.58,mmol/L,1.0,2.2,Y,5,DAY 31 (TP2),TREATMENT,2021-05-06,32
D6470C00005,LB,D6470C00005-0018,34,SODIUM,Sodium,CHEMISTRY,SERUM,140.0,mmol/L,140.0,140.0,mmol/L,136,145,Y,5,DAY 31 (TP2),TREATMENT,2021-05-06,32
D6470C00005,LB,D6470C00005-0018,35,K,Potassium,CHEMISTRY,SERUM,4.7,mmol/L,4.7,4.7,mmol/L,3.5,5.1,Y,5,DAY 31 (TP2),TREATMENT,2021-05-06,32
D6470C00005,LB,D6470C00005-0018,36,CORTISOL,Cortisol,CHEMISTRY,SERUM,156.0,nmol/L,156.0,156.0,nmol/L,138,635,Y,5,DAY 31 (TP2),TREATMENT,2021-05-06,32
D6470C00005,LB,D6470C00005-0018,37,HGB,Hemoglobin,HEMATOLOGY,SERUM,134.0,g/L,134.0,134.0,g/L,120,160,N,5,DAY 31 (TP2),TREATMENT,2021-05-06,32
D6470C00005,LB,D6470C00005-0018,38,HCT,Hematocrit,HEMATOLOGY,SERUM,0.49,1,0.49,0.49,1,0.36,0.48,N,5,DAY 31 (TP2),TREATMENT,2021-05-06,32
D6470C00005,LB,D6470C00005-0018,39,K,Potassium,URINALYSIS,URINE,69.0,mmol/L,69.0,69.0,mmol/L,,,N,5,DAY 31 (TP2),TREATMENT,2021-05-06,32
D6470C00005,LB,D6470C00005-0018,40,SODIUM,Sodium,URINALYSIS,URINE,61.0,mmol/L,61.0,61.0,mmol/L,,,N,5,DAY 31 (TP2),TREATMENT,2021-05-06,32
D6470C00005,LB,D6470C00005-0018,41,GLUC,Glucose,CHEMISTRY,SERUM,7.3,mmol/L,7.3,7.3,mmol/L,4.1,5.9,Y,6,FOLLOW-UP,FOLLOW-UP,2021-06-05,62
D6470C00005,LB,D6470C00005-0018,42,INSULIN,Insulin,CHEMISTRY,SERUM,99.0,pmol/L,99.0,99.0,pmol/L,18,173,Y,6,FOLLOW-UP,FOLLOW-UP,2021-06-05,62
D6470C00005,LB,D6470C00005-0018,43,CPEPTIDE,C-Peptide,CHEMISTRY,SERUM,1.09,nmol/L,1.09,1.09,nmol/L,0.37,1.47,Y,6,FOLLOW-UP,FOLLOW-UP,2021-06-05,62
D6470C00005,LB,D6470C00005-0018,44,HBA1C,Hemoglobin A1C,CHEMISTRY,SERUM,6.9,%,6.9,6.9,%,4.0,6.0,Y,6,FOLLOW-UP,FOLLOW-UP,2021-06-05,62
D6470C00005,LB,D6470C00005-0018,45,CHOL,Cholesterol,CHEMISTRY,SERUM,5.1,mmol/L,5.1,5.1,mmol/L,0,5.2,Y,6,FOLLOW-UP,FOLLOW-UP,2021-06-05,62
D6470C00005,LB,D6470C00005-0018,46,TRIG,Triglycerides,CHEMISTRY,SERUM,2.89,mmol/L,2.89,2.89,mmol/L,0,1.7,Y,6,FOLLOW-UP,FOLLOW-UP,2021-06-05,62
D6470C00005,LB,D6470C00005-0018,47,HDL,HDL Cholesterol,CHEMISTRY,SERUM,0.92,mmol/L,0.92,0.92,mmol/L,1.0,2.2,Y,6,FOLLOW-UP,FOLLOW-UP,2021-06-05,62
D6470C00005,LB,D6470C00005-0018,48,SODIUM,Sodium,CHEMISTRY,SERUM,142.0,mmol/L,142.0,142.0,mmol/L,136,145,Y,6,FOLLOW-UP,FOLLOW-UP,2021-06-05,62
D6470C00005,LB,D6470C00005-0018,49,K,Potassium,CHEMISTRY,SERUM,4.7,mmol/L,4.7,4.7,mmol/L,3.5,5.1,Y,6,FOLLOW-UP,FOLLOW-UP,2021-06-05,62
D6470C00005,LB,D6470C00005-0018,50,CORTISOL,Cortisol,CHEMISTRY,SERUM,372.0,nmol/L,372.0,372.0,nmol/L,138,635,Y,6,FOLLOW-UP,FOLLOW-UP,2021-06-05,62
D6470C00005,LB,D6470C00005-0018,51,HGB,Hemoglobin,HEMATOLOGY,SERUM,132.0,g/L,132.0,132.0,g/L,120,160,N,6,FOLLOW-UP,FOLLOW-UP,2021-06-05,62
D6470C00005,LB,D6470C00005-0018,52,HCT,Hematocrit,HEMATOLOGY,SERUM,0.43,1,0.43,0.43,1,0.36,0.48,N,6,FOLLOW-UP,FOLLOW-UP,2021-06-05,62
D6470C00005,LB,D6470C00005-0019,1,GLUC,Glucose,CHEMISTRY,SERUM,8.2,mmol/L,8.2,8.2,mmol/L,4.1,5.9,Y,1,SCREENING,SCREENING,2021-01-28,-14
D6470C00005,LB,D6470C00005-0019,2,INSULIN,Insulin,CHEMISTRY,SERUM,149.0,pmol/L,149.0,149.0,pmol/L,18,173,Y,1,SCREENING,SCREENING,2021-01-28,-14
D6470C00005,LB,D6470C00005-0019,3,CPEPTIDE,C-Peptide,CHEMISTRY,SERUM,0.44,nmol/L,0.44,0.44,nmol/L,0.37,1.47,Y,1,SCREENING,SCREENING,2021-01-28,-14
D6470C00005,LB,D6470C00005-0019,4,HBA1C,Hemoglobin A1C,CHEMISTRY,SERUM,8.5,%,8.5,8.5,%,4.0,6.0,Y,1,SCREENING,SCREENING,2021-01-28,-14
D6470C00005,LB,D6470C00005-0019,5,CHOL,Cholesterol,CHEMISTRY,SERUM,4.9,mmol/L,4.9,4.9,mmol/L,0,5.2,Y,1,SCREENING,SCREENING,2021-01-28,-14
D6470C00005,LB,D6470C00005-0019,6,TRIG,Triglycerides,CHEMISTRY,SERUM,2.25,mmol/L,2.25,2.25,mmol/L,0,1.7,Y,1,SCREENING,SCREENING,2021-01-28,-14
D6470C00005,LB,D6470C00005-0019,7,HDL,HDL Cholesterol,CHEMISTRY,SERUM,1.44,mmol/L,1.44,1.44,mmol/L,1.0,2.2,Y,1,SCREENING,SCREENING,2021-01-28,-14
D6470C00005,LB,D6470C00005-0019,8,SODIUM,Sodium,CHEMISTRY,SERUM,137.0,mmol/L,137.0,137.0,mmol/L,136,145,Y,1,SCREENING,SCREENING,2021-01-28,-14
D6470C00005,LB,D6470C00005-0019,9,K,Potassium,CHEMISTRY,SERUM,4.2,mmol/L,4.2,4.2,mmol/L,3.5,5.1,Y,1,SCREENING,SCREENING,2021-01-28,-14
D6470C00005,LB,D6470C00005-0019,10,CORTISOL,Cortisol,CHEMISTRY,SERUM,230.0,nmol/L,230.0,230.0,nmol/L,138,635,Y,1,SCREENING,SCREENING,2021-01-28,-14
D6470C00005,LB,D6470C00005-0019,11,HGB,Hemoglobin,HEMATOLOGY,SERUM,134.0,g/L,134.0,134.0,g/L,120,160,N,1,SCREENING,SCREENING,2021-01-28,-14
D6470C00005,LB,D6470C00005-0019,12,HCT,Hematocrit,HEMATOLOGY,SERUM,0.39,1,0.39,0.39,1,0.36,0.48,N,1,SCREENING,SCREENING,2021-01-28,-14
D6470C00005,LB,D6470C00005-0019,13,GLUC,Glucose,CHEMISTRY,SERUM,9.1,mmol/L,9.1,9.1,mmol/L,4.1,5.9,Y,3,DAY 4 (TP1),TREATMENT,2021-02-15,5
D6470C00005,LB,D6470C00005-0019,14,INSULIN,Insulin,CHEMISTRY,SERUM,115.0,pmol/L,115.0,115.0,pmol/L,18,173,Y,3,DAY 4 (TP1),TREATMENT,2021-02-15,5
D6470C00005,LB,D6470C00005-0019,15,CPEPTIDE,C-Peptide,CHEMISTRY,SERUM,1.51,nmol/L,1.51,1.51,nmol/L,0.37,1.47,Y,3,DAY 4 (TP1),TREATMENT,2021-02-15,5
D6470C00005,LB,D6470C00005-0019,16,HBA1C,Hemoglobin A1C,CHEMISTRY,SERUM,8.1,%,8.1,8.1,%,4.0,6.0,Y,3,DAY 4 (TP1),TREATMENT,2021-02-15,5
D6470C00005,LB,D6470C00005-0019,17,CHOL,Cholesterol,CHEMISTRY,SERUM,6.5,mmol/L,6.5,6.5,mmol/L,0,5.2,Y,3,DAY 4 (TP1),TREATMENT,2021-02-15,5
D6470C00005,LB,D6470C00005-0019,18,TRIG,Triglycerides,CHEMISTRY,SERUM,3.15,mmol/L,3.15,3.15,mmol/L,0,1.7,Y,3,DAY 4 (TP1),TREATMENT,2021-02-15,5
D6470C00005,LB,D6470C00005-0019,19,HDL,HDL Cholesterol,CHEMISTRY,SERUM,1.49,mmol/L,1.49,1.49,mmol/L,1.0,2.2,Y,3,DAY 4 (TP1),TREATMENT,2021-02-15,5
D6470C00005,LB,D6470C00005-0019,20,SODIUM,Sodium,CHEMISTRY,SERUM,144.0,mmol/L,144.0,144.0,mmol/L,136,145,Y,3,DAY 4 (TP1),TREATMENT,2021-02-15,5
D6470C00005,LB,D6470C00005-0019,21,K,Potassium,CHEMISTRY,SERUM,4.6,mmol/L,4.6,4.6,mmol/L,3.5,5.1,Y,3,DAY 4 (TP1),TREATMENT,2021-02-15,5
D6470C00005,LB,D6470C00005-0019,22,CORTISOL,Cortisol,CHEMISTRY,SERUM,483.0,nmol/L,483.0,483.0,nmol/L,138,635,Y,3,DAY 4 (TP1),TREATMENT,2021-02-15,5
D6470C00005,LB,D6470C00005-0019,23,HGB,Hemoglobin,HEMATOLOGY,SERUM,122.0,g/L,122.0,122.0,g/L,120,160,N,3,DAY 4 (TP1),TREATMENT,2021-02-15,5
D6470C00005,LB,D6470C00005-0019,24,HCT,Hematocrit,HEMATOLOGY,SERUM,0.4,1,0.4,0.4,1,0.36,0.48,N,3,DAY 4 (TP1),TREATMENT,2021-02-15,5
D6470C00005,LB,D6470C00005-0019,25,K,Potassium,URINALYSIS,URINE,71.0,mmol/L,71.0,71.0,mmol/L,,,N,3,DAY 4 (TP1),TREATMENT,2021-02-15,5
D6470C00005,LB,D6470C00005-0019,26,SODIUM,Sodium,URINALYSIS,URINE,182.0,mmol/L,182.0,182.0,mmol/L,,,N,3,DAY 4 (TP1),TREATMENT,2021-02-15,5
D6470C00005,LB,D6470C00005-0019,27,GLUC,Glucose,CHEMISTRY,SERUM,11.9,mmol/L,11.9,11.9,mmol/L,4.1,5.9,Y,5,DAY 31 (TP2),TREATMENT,2021-03-14,32
D6470C00005,LB,D6470C00005-0019,28,INSULIN,Insulin,CHEMISTRY,SERUM,56.0,pmol/L,56.0,56.0,pmol/L,18,173,Y,5,DAY 31 (TP2),TREATMENT,2021-03-14,32
D6470C00005,LB,D6470C00005-0019,29,CPEPTIDE,C-Peptide,CHEMISTRY,SERUM,1.34,nmol/L,1.34,1.34,nmol/L,0.37,1.47,Y,5,DAY 31 (TP2),TREATMENT,2021-03-14,32
D6470C00005,LB,D6470C00005-0019,30,HBA1C,Hemoglobin A1C,CHEMISTRY,SERUM,8.8,%,8.8,8.8,%,4.0,6.0,Y,5,DAY 31 (TP2),TREATMENT,2021-03-14,32
D6470C00005,LB,D6470C00005-0019,31,CHOL,Cholesterol,CHEMISTRY,SERUM,5.3,mmol/L,5.3,5.3,mmol/L,0,5.2,Y,5,DAY 31 (TP2),TREATMENT,2021-03-14,32
D6470C00005,LB,D6470C00005-0019,32,TRIG,Triglycerides,CHEMISTRY,SERUM,1.68,mmol/L,1.68,1.68,mmol/L,0,1.7,Y,5,DAY 31 (TP2),TREATMENT,2021-03-14,32
D6470C00005,LB,D6470C00005-0019,33,HDL,HDL Cholesterol,CHEMISTRY,SERUM,1.68,mmol/L,1.68,1.68,mmol/L,1.0,2.2,Y,5,DAY 31 (TP2),TREATMENT,2021-03-14,32
D6470C00005,LB,D6470C00005-0019,34,SODIUM,Sodium,CHEMISTRY,SERUM,143.0,mmol/L,143.0,143.0,mmol/L,136,145,Y,5,DAY 31 (TP2),TREATMENT,2021-03-14,32
D6470C00005,LB,D6470C00005-0019,35,K,Potassium,CHEMISTRY,SERUM,5.0,mmol/L,5.0,5.0,mmol/L,3.5,5.1,Y,5,DAY 31 (TP2),TREATMENT,2021-03-14,32
D6470C00005,LB,D6470C00005-0019,36,CORTISOL,Cortisol,CHEMISTRY,SERUM,387.0,nmol/L,387.0,387.0,nmol/L,138,635,Y,5,DAY 31 (TP2),TREATMENT,2021-03-14,32
D6470C00005,LB,D6470C00005-0019,37,HGB,Hemoglobin,HEMATOLOGY,SERUM,143.0,g/L,143.0,143.0,g/L,120,160,N,5,DAY 31 (TP2),TREATMENT,2021-03-14,32
D6470C00005,LB,D6470C00005-0019,38,HCT,Hematocrit,HEMATOLOGY,SERUM,0.41,1,0.41,0.41,1,0.36,0.48,N,5,DAY 31 (TP2),TREATMENT,2021-03-14,32
D6470C00005,LB,D6470C00005-0019,39,K,Potassium,URINALYSIS,URINE,26.0,mmol/L,26.0,26.0,mmol/L,,,N,5,DAY 31 (TP2),TREATMENT,2021-03-14,32
D6470C00005,LB,D6470C00005-0019,40,SODIUM,Sodium,URINALYSIS,URINE,56.0,mmol/L,56.0,56.0,mmol/L,,,N,5,DAY 31 (TP2),TREATMENT,2021-03-14,32
D6470C00005,LB,D6470C00005-0019,41,GLUC,Glucose,CHEMISTRY,SERUM,9.7,mmol/L,9.7,9.7,mmol/L,4.1,5.9,Y,6,FOLLOW-UP,FOLLOW-UP,2021-04-13,62
D6470C00005,LB,D6470C00005-0019,42,INSULIN,Insulin,CHEMISTRY,SERUM,41.0,pmol/L,41.0,41.0,pmol/L,18,173,Y,6,FOLLOW-UP,FOLLOW-UP,2021-04-13,62
D6470C00005,LB,D6470C00005-0019,43,CPEPTIDE,C-Peptide,CHEMISTRY,SERUM,0.4,nmol/L,0.4,0.4,nmol/L,0.37,1.47,Y,6,FOLLOW-UP,FOLLOW-UP,2021-04-13,62
D6470C00005,LB,D6470C00005-0019,44,HBA1C,Hemoglobin A1C,CHEMISTRY,SERUM,8.1,%,8.1,8.1,%,4.0,6.0,Y,6,FOLLOW-UP,FOLLOW-UP,2021-04-13,62
D6470C00005,LB,D6470C00005-0019,45,CHOL,Cholesterol,CHEMISTRY,SERUM,5.7,mmol/L,5.7,5.7,mmol/L,0,5.2,Y,6,FOLLOW-UP,FOLLOW-UP,2021-04-13,62
D6470C00005,LB,D6470C00005-0019,46,TRIG,Triglycerides,CHEMISTRY,SERUM,3.07,mmol/L,3.07,3.07,mmol/L,0,1.7,Y,6,FOLLOW-UP,FOLLOW-UP,2021-04-13,62
D6470C00005,LB,D6470C00005-0019,47,HDL,HDL Cholesterol,CHEMISTRY,SERUM,0.88,mmol/L,0.88,0.88,mmol/L,1.0,2.2,Y,6,FOLLOW-UP,FOLLOW-UP,2021-04-13,62
D6470C00005,LB,D6470C00005-0019,48,SODIUM,Sodium,CHEMISTRY,SERUM,143.0,mmol/L,143.0,143.0,mmol/L,136,145,Y,6,FOLLOW-UP,FOLLOW-UP,2021-04-13,62
D6470C00005,LB,D6470C00005-0019,49,K,Potassium,CHEMISTRY,SERUM,4.9,mmol/L,4.9,4.9,mmol/L,3.5,5.1,Y,6,FOLLOW-UP,FOLLOW-UP,2021-04-13,62
D6470C00005,LB,D6470C00005-0019,50,CORTISOL,Cortisol,CHEMISTRY,SERUM,184.0,nmol/L,184.0,184.0,nmol/L,138,635,Y,6,FOLLOW-UP,FOLLOW-UP,2021-04-13,62
D6470C00005,LB,D6470C00005-0019,51,HGB,Hemoglobin,HEMATOLOGY,SERUM,139.0,g/L,139.0,139.0,g/L,120,160,N,6,FOLLOW-UP,FOLLOW-UP,2021-04-13,62
D6470C00005,LB,D6470C00005-0019,52,HCT,Hematocrit,HEMATOLOGY,SERUM,0.49,1,0.49,0.49,1,0.36,0.48,N,6,FOLLOW-UP,FOLLOW-UP,2021-04-13,62
D6470C00005,LB,D6470C00005-0020,1,GLUC,Glucose,CHEMISTRY,SERUM,8.6,mmol/L,8.6,8.6,mmol/L,4.1,5.9,Y,1,SCREENING,SCREENING,2021-03-13,-14
D6470C00005,LB,D6470C00005-0020,2,INSULIN,Insulin,CHEMISTRY,SERUM,59.0,pmol/L,59.0,59.0,pmol/L,18,173,Y,1,SCREENING,SCREENING,2021-03-13,-14
D6470C00005,LB,D6470C00005-0020,3,CPEPTIDE,C-Peptide,CHEMISTRY,SERUM,0.41,nmol/L,0.41,0.41,nmol/L,0.37,1.47,Y,1,SCREENING,SCREENING,2021-03-13,-14
D6470C00005,LB,D6470C00005-0020,4,HBA1C,Hemoglobin A1C,CHEMISTRY,SERUM,6.3,%,6.3,6.3,%,4.0,6.0,Y,1,SCREENING,SCREENING,2021-03-13,-14
D6470C00005,LB,D6470C00005-0020,5,CHOL,Cholesterol,CHEMISTRY,SERUM,5.6,mmol/L,5.6,5.6,mmol/L,0,5.2,Y,1,SCREENING,SCREENING,2021-03-13,-14
D6470C00005,LB,D6470C00005-0020,6,TRIG,Triglycerides,CHEMISTRY,SERUM,1.08,mmol/L,1.08,1.08,mmol/L,0,1.7,Y,1,SCREENING,SCREENING,2021-03-13,-14
D6470C00005,LB,D6470C00005-0020,7,HDL,HDL Cholesterol,CHEMISTRY,SERUM,1.54,mmol/L,1.54,1.54,mmol/L,1.0,2.2,Y,1,SCREENING,SCREENING,2021-03-13,-14
D6470C00005,LB,D6470C00005-0020,8,SODIUM,Sodium,CHEMISTRY,SERUM,141.0,mmol/L,141.0,141.0,mmol/L,136,145,Y,1,SCREENING,SCREENING,2021-03-13,-14
D6470C00005,LB,D6470C00005-0020,9,K,Potassium,CHEMISTRY,SERUM,3.8,mmol/L,3.8,3.8,mmol/L,3.5,5.1,Y,1,SCREENING,SCREENING,2021-03-13,-14
D6470C00005,LB,D6470C00005-0020,10,CORTISOL,Cortisol,CHEMISTRY,SERUM,212.0,nmol/L,212.0,212.0,nmol/L,138,635,Y,1,SCREENING,SCREENING,2021-03-13,-14
D6470C00005,LB,D6470C00005-0020,11,HGB,Hemoglobin,HEMATOLOGY,SERUM,129.0,g/L,129.0,129.0,g/L,120,160,N,1,SCREENING,SCREENING,2021-03-13,-14
D6470C00005,LB,D6470C00005-0020,12,HCT,Hematocrit,HEMATOLOGY,SERUM,0.4,1,0.4,0.4,1,0.36,0.48,N,1,SCREENING,SCREENING,2021-03-13,-14
D6470C00005,LB,D6470C00005-0020,13,GLUC,Glucose,CHEMISTRY,SERUM,6.6,mmol/L,6.6,6.6,mmol/L,4.1,5.9,Y,3,DAY 4 (TP1),TREATMENT,2021-03-31,5
D6470C00005,LB,D6470C00005-0020,14,INSULIN,Insulin,CHEMISTRY,SERUM,113.0,pmol/L,113.0,113.0,pmol/L,18,173,Y,3,DAY 4 (TP1),TREATMENT,2021-03-31,5
D6470C00005,LB,D6470C00005-0020,15,CPEPTIDE,C-Peptide,CHEMISTRY,SERUM,1.1,nmol/L,1.1,1.1,nmol/L,0.37,1.47,Y,3,DAY 4 (TP1),TREATMENT,2021-03-31,5
D6470C00005,LB,D6470C00005-0020,16,HBA1C,Hemoglobin A1C,CHEMISTRY,SERUM,7.6,%,7.6,7.6,%,4.0,6.0,Y,3,DAY 4 (TP1),TREATMENT,2021-03-31,5
D6470C00005,LB,D6470C00005-0020,17,CHOL,Cholesterol,CHEMISTRY,SERUM,4.8,mmol/L,4.8,4.8,mmol/L,0,5.2,Y,3,DAY 4 (TP1),TREATMENT,2021-03-31,5
D6470C00005,LB,D6470C00005-0020,18,TRIG,Triglycerides,CHEMISTRY,SERUM,2.82,mmol/L,2.82,2.82,mmol/L,0,1.7,Y,3,DAY 4 (TP1),TREATMENT,2021-03-31,5
D6470C00005,LB,D6470C00005-0020,19,HDL,HDL Cholesterol,CHEMISTRY,SERUM,1.04,mmol/L,1.04,1.04,mmol/L,1.0,2.2,Y,3,DAY 4 (TP1),TREATMENT,2021-03-31,5
D6470C00005,LB,D6470C00005-0020,20,SODIUM,Sodium,CHEMISTRY,SERUM,138.0,mmol/L,138.0,138.0,mmol/L,136,145,Y,3,DAY 4 (TP1),TREATMENT,2021-03-31,5
D6470C00005,LB,D6470C00005-0020,21,K,Potassium,CHEMISTRY,SERUM,3.8,mmol/L,3.8,3.8,mmol/L,3.5,5.1,Y,3,DAY 4 (TP1),TREATMENT,2021-03-31,5
D6470C00005,LB,D6470C00005-0020,22,CORTISOL,Cortisol,CHEMISTRY,SERUM,491.0,nmol/L,491.0,491.0,nmol/L,138,635,Y,3,DAY 4 (TP1),TREATMENT,2021-03-31,5
D6470C00005,LB,D6470C00005-0020,23,HGB,Hemoglobin,HEMATOLOGY,SERUM,158.0,g/L,158.0,158.0,g/L,120,160,N,3,DAY 4 (TP1),TREATMENT,2021-03-31,5
D6470C00005,LB,D6470C00005-0020,24,HCT,Hematocrit,HEMATOLOGY,SERUM,0.39,1,0.39,0.39,1,0.36,0.48,N,3,DAY 4 (TP1),TREATMENT,2021-03-31,5
D6470C00005,LB,D6470C00005-0020,25,K,Potassium,URINALYSIS,URINE,30.0,mmol/L,30.0,30.0,mmol/L,,,N,3,DAY 4 (TP1),TREATMENT,2021-03-31,5
D6470C00005,LB,D6470C00005-0020,26,SODIUM,Sodium,URINALYSIS,URINE,62.0,mmol/L,62.0,62.0,mmol/L,,,N,3,DAY 4 (TP1),TREATMENT,2021-03-31,5
D6470C00005,LB,D6470C00005-0020,27,GLUC,Glucose,CHEMISTRY,SERUM,9.4,mmol/L,9.4,9.4,mmol/L,4.1,5.9,Y,5,DAY 31 (TP2),TREATMENT,2021-04-27,32
D6470C00005,LB,D6470C00005-0020,28,INSULIN,Insulin,CHEMISTRY,SERUM,61.0,pmol/L,61.0,61.0,pmol/L,18,173,Y,5,DAY 31 (TP2),TREATMENT,2021-04-27,32
D6470C00005,LB,D6470C00005-0020,29,CPEPTIDE,C-Peptide,CHEMISTRY,SERUM,1.1,nmol/L,1.1,1.1,nmol/L,0.37,1.47,Y,5,DAY 31 (TP2),TREATMENT,2021-04-27,32
D6470C00005,LB,D6470C00005-0020,30,HBA1C,Hemoglobin A1C,CHEMISTRY,SERUM,6.1,%,6.1,6.1,%,4.0,6.0,Y,5,DAY 31 (TP2),TREATMENT,2021-04-27,32
D6470C00005,LB,D6470C00005-0020,31,CHOL,Cholesterol,CHEMISTRY,SERUM,4.1,mmol/L,4.1,4.1,mmol/L,0,5.2,Y,5,DAY 31 (TP2),TREATMENT,2021-04-27,32
D6470C00005,LB,D6470C00005-0020,32,TRIG,Triglycerides,CHEMISTRY,SERUM,1.38,mmol/L,1.38,1.38,mmol/L,0,1.7,Y,5,DAY 31 (TP2),TREATMENT,2021-04-27,32
D6470C00005,LB,D6470C00005-0020,33,HDL,HDL Cholesterol,CHEMISTRY,SERUM,1.6,mmol/L,1.6,1.6,mmol/L,1.0,2.2,Y,5,DAY 31 (TP2),TREATMENT,2021-04-27,32
D6470C00005,LB,D6470C00005-0020,34,SODIUM,Sodium,CHEMISTRY,SERUM,138.0,mmol/L,138.0,138.0,mmol/L,136,145,Y,5,DAY 31 (TP2),TREATMENT,2021-04-27,32
D6470C00005,LB,D6470C00005-0020,35,K,Potassium,CHEMISTRY,SERUM,4.9,mmol/L,4.9,4.9,mmol/L,3.5,5.1,Y,5,DAY 31 (TP2),TREATMENT,2021-04-27,32
D6470C00005,LB,D6470C00005-0020,36,CORTISOL,Cortisol,CHEMISTRY,SERUM,445.0,nmol/L,445.0,445.0,nmol/L,138,635,Y,5,DAY 31 (TP2),TREATMENT,2021-04-27,32
D6470C00005,LB,D6470C00005-0020,37,HGB,Hemoglobin,HEMATOLOGY,SERUM,160.0,g/L,160.0,160.0,g/L,120,160,N,5,DAY 31 (TP2),TREATMENT,2021-04-27,32
D6470C00005,LB,D6470C00005-0020,38,HCT,Hematocrit,HEMATOLOGY,SERUM,0.41,1,0.41,0.41,1,0.36,0.48,N,5,DAY 31 (TP2),TREATMENT,2021-04-27,32
D6470C00005,LB,D6470C00005-0020,39,K,Potassium,URINALYSIS,URINE,78.0,mmol/L,78.0,78.0,mmol/L,,,N,5,DAY 31 (TP2),TREATMENT,2021-04-27,32
D6470C00005,LB,D6470C00005-0020,40,SODIUM,Sodium,URINALYSIS,URINE,99.0,mmol/L,99.0,99.0,mmol/L,,,N,5,DAY 31 (TP2),TREATMENT,2021-04-27,32
D6470C00005,LB,D6470C00005-0020,41,GLUC,Glucose,CHEMISTRY,SERUM,8.2,mmol/L,8.2,8.2,mmol/L,4.1,5.9,Y,6,FOLLOW-UP,FOLLOW-UP,2021-05-27,62
D6470C00005,LB,D6470C00005-0020,42,INSULIN,Insulin,CHEMISTRY,SERUM,149.0,pmol/L,149.0,149.0,pmol/L,18,173,Y,6,FOLLOW-UP,FOLLOW-UP,2021-05-27,62
D6470C00005,LB,D6470C00005-0020,43,CPEPTIDE,C-Peptide,CHEMISTRY,SERUM,0.57,nmol/L,0.57,0.57,nmol/L,0.37,1.47,Y,6,FOLLOW-UP,FOLLOW-UP,2021-05-27,62
D6470C00005,LB,D6470C00005-0020,44,HBA1C,Hemoglobin A1C,CHEMISTRY,SERUM,8.6,%,8.6,8.6,%,4.0,6.0,Y,6,FOLLOW-UP,FOLLOW-UP,2021-05-27,62
D6470C00005,LB,D6470C00005-0020,45,CHOL,Cholesterol,CHEMISTRY,SERUM,6.5,mmol/L,6.5,6.5,mmol/L,0,5.2,Y,6,FOLLOW-UP,FOLLOW-UP,2021-05-27,62
D6470C00005,LB,D6470C00005-0020,46,TRIG,Triglycerides,CHEMISTRY,SERUM,2.26,mmol/L,2.26,2.26,mmol/L,0,1.7,Y,6,FOLLOW-UP,FOLLOW-UP,2021-05-27,62
D6470C00005,LB,D6470C00005-0020,47,HDL,HDL Cholesterol,CHEMISTRY,SERUM,1.68,mmol/L,1.68,1.68,mmol/L,1.0,2.2,Y,6,FOLLOW-UP,FOLLOW-UP,2021-05-27,62
D6470C00005,LB,D6470C00005-0020,48,SODIUM,Sodium,CHEMISTRY,SERUM,144.0,mmol/L,144.0,144.0,mmol/L,136,145,Y,6,FOLLOW-UP,FOLLOW-UP,2021-05-27,62
D6470C00005,LB,D6470C00005-0020,49,K,Potassium,CHEMISTRY,SERUM,4.5,mmol/L,4.5,4.5,mmol/L,3.5,5.1,Y,6,FOLLOW-UP,FOLLOW-UP,2021-05-27,62
D6470C00005,LB,D6470C00005-0020,50,CORTISOL,Cortisol,CHEMISTRY,SERUM,298.0,nmol/L,298.0,298.0,nmol/L,138,635,Y,6,FOLLOW-UP,FOLLOW-UP,2021-05-27,62
D6470C00005,LB,D6470C00005-0020,51,HGB,Hemoglobin,HEMATOLOGY,SERUM,149.0,g/L,149.0,149.0,g/L,120,160,N,6,FOLLOW-UP,FOLLOW-UP,2021-05-27,62
D6470C00005,LB,D6470C00005-0020,52,HCT,Hematocrit,HEMATOLOGY,SERUM,0.44,1,0.44,0.44,1,0.36,0.48,N,6,FOLLOW-UP,FOLLOW-UP,2021-05-27,62
D6470C00005,LB,D6470C00005-0021,1,GLUC,Glucose,CHEMISTRY,SERUM,7.5,mmol/L,7.5,7.5,mmol/L,4.1,5.9,Y,1,SCREENING,SCREENING,2021-02-11,-14
D6470C00005,LB,D6470C00005-0021,2,INSULIN,Insulin,CHEMISTRY,SERUM,128.0,pmol/L,128.0,128.0,pmol/L,18,173,Y,1,SCREENING,SCREENING,2021-02-11,-14
D6470C00005,LB,D6470C00005-0021,3,CPEPTIDE,C-Peptide,CHEMISTRY,SERUM,0.92,nmol/L,0.92,0.92,nmol/L,0.37,1.47,Y,1,SCREENING,SCREENING,2021-02-11,-14
D6470C00005,LB,D6470C00005-0021,4,HBA1C,Hemoglobin A1C,CHEMISTRY,SERUM,6.4,%,6.4,6.4,%,4.0,6.0,Y,1,SCREENING,SCREENING,2021-02-11,-14
D6470C00005,LB,D6470C00005-0021,5,CHOL,Cholesterol,CHEMISTRY,SERUM,5.5,mmol/L,5.5,5.5,mmol/L,0,5.2,Y,1,SCREENING,SCREENING,2021-02-11,-14
D6470C00005,LB,D6470C00005-0021,6,TRIG,Triglycerides,CHEMISTRY,SERUM,2.99,mmol/L,2.99,2.99,mmol/L,0,1.7,Y,1,SCREENING,SCREENING,2021-02-11,-14
D6470C00005,LB,D6470C00005-0021,7,HDL,HDL Cholesterol,CHEMISTRY,SERUM,1.18,mmol/L,1.18,1.18,mmol/L,1.0,2.2,Y,1,SCREENING,SCREENING,2021-02-11,-14
D6470C00005,LB,D6470C00005-0021,8,SODIUM,Sodium,CHEMISTRY,SERUM,140.0,mmol/L,140.0,140.0,mmol/L,136,145,Y,1,SCREENING,SCREENING,2021-02-11,-14
D6470C00005,LB,D6470C00005-0021,9,K,Potassium,CHEMISTRY,SERUM,4.0,mmol/L,4.0,4.0,mmol/L,3.5,5.1,Y,1,SCREENING,SCREENING,2021-02-11,-14
D6470C00005,LB,D6470C00005-0021,10,CORTISOL,Cortisol,CHEMISTRY,SERUM,441.0,nmol/L,441.0,441.0,nmol/L,138,635,Y,1,SCREENING,SCREENING,2021-02-11,-14
D6470C00005,LB,D6470C00005-0021,11,HGB,Hemoglobin,HEMATOLOGY,SERUM,141.0,g/L,141.0,141.0,g/L,120,160,N,1,SCREENING,SCREENING,2021-02-11,-14
D6470C00005,LB,D6470C00005-0021,12,HCT,Hematocrit,HEMATOLOGY,SERUM,0.48,1,0.48,0.48,1,0.36,0.48,N,1,SCREENING,SCREENING,2021-02-11,-14
D6470C00005,LB,D6470C00005-0021,13,GLUC,Glucose,CHEMISTRY,SERUM,8.8,mmol/L,8.8,8.8,mmol/L,4.1,5.9,Y,3,DAY 4 (TP1),TREATMENT,2021-03-01,5
D6470C00005,LB,D6470C00005-0021,14,INSULIN,Insulin,CHEMISTRY,SERUM,70.0,pmol/L,70.0,70.0,pmol/L,18,173,Y,3,DAY 4 (TP1),TREATMENT,2021-03-01,5
D6470C00005,LB,D6470C00005-0021,15,CPEPTIDE,C-Peptide,CHEMISTRY,SERUM,0.96,nmol/L,0.96,0.96,nmol/L,0.37,1.47,Y,3,DAY 4 (TP1),TREATMENT,2021-03-01,5
D6470C00005,LB,D6470C00005-0021,16,HBA1C,Hemoglobin A1C,CHEMISTRY,SERUM,6.7,%,6.7,6.7,%,4.0,6.0,Y,3,DAY 4 (TP1),TREATMENT,2021-03-01,5
D6470C00005,LB,D6470C00005-0021,17,CHOL,Cholesterol,CHEMISTRY,SERUM,6.6,mmol/L,6.6,6.6,mmol/L,0,5.2,Y,3,DAY 4 (TP1),TREATMENT,2021-03-01,5
D6470C00005,LB,D6470C00005-0021,18,TRIG,Triglycerides,CHEMISTRY,SERUM,2.68,mmol/L,2.68,2.68,mmol/L,0,1.7,Y,3,DAY 4 (TP1),TREATMENT,2021-03-01,5
D6470C00005,LB,D6470C00005-0021,19,HDL,HDL Cholesterol,CHEMISTRY,SERUM,0.87,mmol/L,0.87,0.87,mmol/L,1.0,2.2,Y,3,DAY 4 (TP1),TREATMENT,2021-03-01,5
D6470C00005,LB,D6470C00005-0021,20,SODIUM,Sodium,CHEMISTRY,SERUM,135.0,mmol/L,135.0,135.0,mmol/L,136,145,Y,3,DAY 4 (TP1),TREATMENT,2021-03-01,5
D6470C00005,LB,D6470C00005-0021,21,K,Potassium,CHEMISTRY,SERUM,3.8,mmol/L,3.8,3.8,mmol/L,3.5,5.1,Y,3,DAY 4 (TP1),TREATMENT,2021-03-01,5
D6470C00005,LB,D6470C00005-0021,22,CORTISOL,Cortisol,CHEMISTRY,SERUM,529.0,nmol/L,529.0,529.0,nmol/L,138,635,Y,3,DAY 4 (TP1),TREATMENT,2021-03-01,5
D6470C00005,LB,D6470C00005-0021,23,HGB,Hemoglobin,HEMATOLOGY,SERUM,127.0,g/L,127.0,127.0,g/L,120,160,N,3,DAY 4 (TP1),TREATMENT,2021-03-01,5
D6470C00005,LB,D6470C00005-0021,24,HCT,Hematocrit,HEMATOLOGY,SERUM,0.38,1,0.38,0.38,1,0.36,0.48,N,3,DAY 4 (TP1),TREATMENT,2021-03-01,5
D6470C00005,LB,D6470C00005-0021,25,K,Potassium,URINALYSIS,URINE,29.0,mmol/L,29.0,29.0,mmol/L,,,N,3,DAY 4 (TP1),TREATMENT,2021-03-01,5
D6470C00005,LB,D6470C00005-0021,26,SODIUM,Sodium,URINALYSIS,URINE,168.0,mmol/L,168.0,168.0,mmol/L,,,N,3,DAY 4 (TP1),TREATMENT,2021-03-01,5
D6470C00005,LB,D6470C00005-0021,27,GLUC,Glucose,CHEMISTRY,SERUM,10.0,mmol/L,10.0,10.0,mmol/L,4.1,5.9,Y,5,DAY 31 (TP2),TREATMENT,2021-03-28,32
D6470C00005,LB,D6470C00005-0021,28,INSULIN,Insulin,CHEMISTRY,SERUM,147.0,pmol/L,147.0,147.0,pmol/L,18,173,Y,5,DAY 31 (TP2),TREATMENT,2021-03-28,32
D6470C00005,LB,D6470C00005-0021,29,CPEPTIDE,C-Peptide,CHEMISTRY,SERUM,0.86,nmol/L,0.86,0.86,nmol/L,0.37,1.47,Y,5,DAY 31 (TP2),TREATMENT,2021-03-28,32
D6470C00005,LB,D6470C00005-0021,30,HBA1C,Hemoglobin A1C,CHEMISTRY,SERUM,6.5,%,6.5,6.5,%,4.0,6.0,Y,5,DAY 31 (TP2),TREATMENT,2021-03-28,32
D6470C00005,LB,D6470C00005-0021,31,CHOL,Cholesterol,CHEMISTRY,SERUM,6.2,mmol/L,6.2,6.2,mmol/L,0,5.2,Y,5,DAY 31 (TP2),TREATMENT,2021-03-28,32
D6470C00005,LB,D6470C00005-0021,32,TRIG,Triglycerides,CHEMISTRY,SERUM,2.2,mmol/L,2.2,2.2,mmol/L,0,1.7,Y,5,DAY 31 (TP2),TREATMENT,2021-03-28,32
D6470C00005,LB,D6470C00005-0021,33,HDL,HDL Cholesterol,CHEMISTRY,SERUM,0.88,mmol/L,0.88,0.88,mmol/L,1.0,2.2,Y,5,DAY 31 (TP2),TREATMENT,2021-03-28,32
D6470C00005,LB,D6470C00005-0021,34,SODIUM,Sodium,CHEMISTRY,SERUM,138.0,mmol/L,138.0,138.0,mmol/L,136,145,Y,5,DAY 31 (TP2),TREATMENT,2021-03-28,32
D6470C00005,LB,D6470C00005-0021,35,K,Potassium,CHEMISTRY,SERUM,5.0,mmol/L,5.0,5.0,mmol/L,3.5,5.1,Y,5,DAY 31 (TP2),TREATMENT,2021-03-28,32
D6470C00005,LB,D6470C00005-0021,36,CORTISOL,Cortisol,CHEMISTRY,SERUM,266.0,nmol/L,266.0,266.0,nmol/L,138,635,Y,5,DAY 31 (TP2),TREATMENT,2021-03-28,32
D6470C00005,LB,D6470C00005-0021,37,HGB,Hemoglobin,HEMATOLOGY,SERUM,150.0,g/L,150.0,150.0,g/L,120,160,N,5,DAY 31 (TP2),TREATMENT,2021-03-28,32
D6470C00005,LB,D6470C00005-0021,38,HCT,Hematocrit,HEMATOLOGY,SERUM,0.49,1,0.49,0.49,1,0.36,0.48,N,5,DAY 31 (TP2),TREATMENT,2021-03-28,32
D6470C00005,LB,D6470C00005-0021,39,K,Potassium,URINALYSIS,URINE,41.0,mmol/L,41.0,41.0,mmol/L,,,N,5,DAY 31 (TP2),TREATMENT,2021-03-28,32
D6470C00005,LB,D6470C00005-0021,40,SODIUM,Sodium,URINALYSIS,URINE,139.0,mmol/L,139.0,139.0,mmol/L,,,N,5,DAY 31 (TP2),TREATMENT,2021-03-28,32
D6470C00005,LB,D6470C00005-0021,41,GLUC,Glucose,CHEMISTRY,SERUM,10.6,mmol/L,10.6,10.6,mmol/L,4.1,5.9,Y,6,FOLLOW-UP,FOLLOW-UP,2021-04-27,62
D6470C00005,LB,D6470C00005-0021,42,INSULIN,Insulin,CHEMISTRY,SERUM,142.0,pmol/L,142.0,142.0,pmol/L,18,173,Y,6,FOLLOW-UP,FOLLOW-UP,2021-04-27,62
D6470C00005,LB,D6470C00005-0021,43,CPEPTIDE,C-Peptide,CHEMISTRY,SERUM,0.46,nmol/L,0.46,0.46,nmol/L,0.37,1.47,Y,6,FOLLOW-UP,FOLLOW-UP,2021-04-27,62
D6470C00005,LB,D6470C00005-0021,44,HBA1C,Hemoglobin A1C,CHEMISTRY,SERUM,8.3,%,8.3,8.3,%,4.0,6.0,Y,6,FOLLOW-UP,FOLLOW-UP,2021-04-27,62
D6470C00005,LB,D6470C00005-0021,45,CHOL,Cholesterol,CHEMISTRY,SERUM,6.6,mmol/L,6.6,6.6,mmol/L,0,5.2,Y,6,FOLLOW-UP,FOLLOW-UP,2021-04-27,62
D6470C00005,LB,D6470C00005-0021,46,TRIG,Triglycerides,CHEMISTRY,SERUM,2.97,mmol/L,2.97,2.97,mmol/L,0,1.7,Y,6,FOLLOW-UP,FOLLOW-UP,2021-04-27,62
D6470C00005,LB,D6470C00005-0021,47,HDL,HDL Cholesterol,CHEMISTRY,SERUM,1.72,mmol/L,1.72,1.72,mmol/L,1.0,2.2,Y,6,FOLLOW-UP,FOLLOW-UP,2021-04-27,62
D6470C00005,LB,D6470C00005-0021,48,SODIUM,Sodium,CHEMISTRY,SERUM,136.0,mmol/L,136.0,136.0,mmol/L,136,145,Y,6,FOLLOW-UP,FOLLOW-UP,2021-04-27,62
D6470C00005,LB,D6470C00005-0021,49,K,Potassium,CHEMISTRY,SERUM,4.9,mmol/L,4.9,4.9,mmol/L,3.5,5.1,Y,6,FOLLOW-UP,FOLLOW-UP,2021-04-27,62
D6470C00005,LB,D6470C00005-0021,50,CORTISOL,Cortisol,CHEMISTRY,SERUM,282.0,nmol/L,282.0,282.0,nmol/L,138,635,Y,6,FOLLOW-UP,FOLLOW-UP,2021-04-27,62
D6470C00005,LB,D6470C00005-0021,51,HGB,Hemoglobin,HEMATOLOGY,SERUM,144.0,g/L,144.0,144.0,g/L,120,160,N,6,FOLLOW-UP,FOLLOW-UP,2021-04-27,62
D6470C00005,LB,D6470C00005-0021,52,HCT,Hematocrit,HEMATOLOGY,SERUM,0.47,1,0.47,0.47,1,0.36,0.48,N,6,FOLLOW-UP,FOLLOW-UP,2021-04-27,62
D6470C00005,LB,D6470C00005-0022,1,GLUC,Glucose,CHEMISTRY,SERUM,7.2,mmol/L,7.2,7.2,mmol/L,4.1,5.9,Y,1,SCREENING,SCREENING,2021-03-10,-14
D6470C00005,LB,D6470C00005-0022,2,INSULIN,Insulin,CHEMISTRY,SERUM,134.0,pmol/L,134.0,134.0,pmol/L,18,173,Y,1,SCREENING,SCREENING,2021-03-10,-14
D6470C00005,LB,D6470C00005-0022,3,CPEPTIDE,C-Peptide,CHEMISTRY,SERUM,0.62,nmol/L,0.62,0.62,nmol/L,0.37,1.47,Y,1,SCREENING,SCREENING,2021-03-10,-14
D6470C00005,LB,D6470C00005-0022,4,HBA1C,Hemoglobin A1C,CHEMISTRY,SERUM,7.5,%,7.5,7.5,%,4.0,6.0,Y,1,SCREENING,SCREENING,2021-03-10,-14
D6470C00005,LB,D6470C00005-0022,5,CHOL,Cholesterol,CHEMISTRY,SERUM,5.5,mmol/L,5.5,5.5,mmol/L,0,5.2,Y,1,SCREENING,SCREENING,2021-03-10,-14
D6470C00005,LB,D6470C00005-0022,6,TRIG,Triglycerides,CHEMISTRY,SERUM,2.07,mmol/L,2.07,2.07,mmol/L,0,1.7,Y,1,SCREENING,SCREENING,2021-03-10,-14
D6470C00005,LB,D6470C00005-0022,7,HDL,HDL Cholesterol,CHEMISTRY,SERUM,1.06,mmol/L,1.06,1.06,mmol/L,1.0,2.2,Y,1,SCREENING,SCREENING,2021-03-10,-14
D6470C00005,LB,D6470C00005-0022,8,SODIUM,Sodium,CHEMISTRY,SERUM,140.0,mmol/L,140.0,140.0,mmol/L,136,145,Y,1,SCREENING,SCREENING,2021-03-10,-14
D6470C00005,LB,D6470C00005-0022,9,K,Potassium,CHEMISTRY,SERUM,5.0,mmol/L,5.0,5.0,mmol/L,3.5,5.1,Y,1,SCREENING,SCREENING,2021-03-10,-14
D6470C00005,LB,D6470C00005-0022,10,CORTISOL,Cortisol,CHEMISTRY,SERUM,206.0,nmol/L,206.0,206.0,nmol/L,138,635,Y,1,SCREENING,SCREENING,2021-03-10,-14
D6470C00005,LB,D6470C00005-0022,11,HGB,Hemoglobin,HEMATOLOGY,SERUM,124.0,g/L,124.0,124.0,g/L,120,160,N,1,SCREENING,SCREENING,2021-03-10,-14
D6470C00005,LB,D6470C00005-0022,12,HCT,Hematocrit,HEMATOLOGY,SERUM,0.38,1,0.38,0.38,1,0.36,0.48,N,1,SCREENING,SCREENING,2021-03-10,-14
D6470C00005,LB,D6470C00005-0022,13,GLUC,Glucose,CHEMISTRY,SERUM,8.3,mmol/L,8.3,8.3,mmol/L,4.1,5.9,Y,3,DAY 4 (TP1),TREATMENT,2021-03-28,5
D6470C00005,LB,D6470C00005-0022,14,INSULIN,Insulin,CHEMISTRY,SERUM,74.0,pmol/L,74.0,74.0,pmol/L,18,173,Y,3,DAY 4 (TP1),TREATMENT,2021-03-28,5
D6470C00005,LB,D6470C00005-0022,15,CPEPTIDE,C-Peptide,CHEMISTRY,SERUM,1.0,nmol/L,1.0,1.0,nmol/L,0.37,1.47,Y,3,DAY 4 (TP1),TREATMENT,2021-03-28,5
D6470C00005,LB,D6470C00005-0022,16,HBA1C,Hemoglobin A1C,CHEMISTRY,SERUM,7.5,%,7.5,7.5,%,4.0,6.0,Y,3,DAY 4 (TP1),TREATMENT,2021-03-28,5
D6470C00005,LB,D6470C00005-0022,17,CHOL,Cholesterol,CHEMISTRY,SERUM,4.1,mmol/L,4.1,4.1,mmol/L,0,5.2,Y,3,DAY 4 (TP1),TREATMENT,2021-03-28,5
D6470C00005,LB,D6470C00005-0022,18,TRIG,Triglycerides,CHEMISTRY,SERUM,1.37,mmol/L,1.37,1.37,mmol/L,0,1.7,Y,3,DAY 4 (TP1),TREATMENT,2021-03-28,5
D6470C00005,LB,D6470C00005-0022,19,HDL,HDL Cholesterol,CHEMISTRY,SERUM,1.28,mmol/L,1.28,1.28,mmol/L,1.0,2.2,Y,3,DAY 4 (TP1),TREATMENT,2021-03-28,5
D6470C00005,LB,D6470C00005-0022,20,SODIUM,Sodium,CHEMISTRY,SERUM,138.0,mmol/L,138.0,138.0,mmol/L,136,145,Y,3,DAY 4 (TP1),TREATMENT,2021-03-28,5
D6470C00005,LB,D6470C00005-0022,21,K,Potassium,CHEMISTRY,SERUM,4.8,mmol/L,4.8,4.8,mmol/L,3.5,5.1,Y,3,DAY 4 (TP1),TREATMENT,2021-03-28,5
D6470C00005,LB,D6470C00005-0022,22,CORTISOL,Cortisol,CHEMISTRY,SERUM,525.0,nmol/L,525.0,525.0,nmol/L,138,635,Y,3,DAY 4 (TP1),TREATMENT,2021-03-28,5
D6470C00005,LB,D6470C00005-0022,23,HGB,Hemoglobin,HEMATOLOGY,SERUM,121.0,g/L,121.0,121.0,g/L,120,160,N,3,DAY 4 (TP1),TREATMENT,2021-03-28,5
D6470C00005,LB,D6470C00005-0022,24,HCT,Hematocrit,HEMATOLOGY,SERUM,0.42,1,0.42,0.42,1,0.36,0.48,N,3,DAY 4 (TP1),TREATMENT,2021-03-28,5
D6470C00005,LB,D6470C00005-0022,25,K,Potassium,URINALYSIS,URINE,68.0,mmol/L,68.0,68.0,mmol/L,,,N,3,DAY 4 (TP1),TREATMENT,2021-03-28,5
D6470C00005,LB,D6470C00005-0022,26,SODIUM,Sodium,URINALYSIS,URINE,168.0,mmol/L,168.0,168.0,mmol/L,,,N,3,DAY 4 (TP1),TREATMENT,2021-03-28,5
D6470C00005,LB,D6470C00005-0022,27,GLUC,Glucose,CHEMISTRY,SERUM,9.9,mmol/L,9.9,9.9,mmol/L,4.1,5.9,Y,5,DAY 31 (TP2),TREATMENT,2021-04-24,32
D6470C00005,LB,D6470C00005-0022,28,INSULIN,Insulin,CHEMISTRY,SERUM,95.0,pmol/L,95.0,95.0,pmol/L,18,173,Y,5,DAY 31 (TP2),TREATMENT,2021-04-24,32
D6470C00005,LB,D6470C00005-0022,29,CPEPTIDE,C-Peptide,CHEMISTRY,SERUM,1.25,nmol/L,1.25,1.25,nmol/L,0.37,1.47,Y,5,DAY 31 (TP2),TREATMENT,2021-04-24,32
D6470C00005,LB,D6470C00005-0022,30,HBA1C,Hemoglobin A1C,CHEMISTRY,SERUM,6.8,%,6.8,6.8,%,4.0,6.0,Y,5,DAY 31 (TP2),TREATMENT,2021-04-24,32
D6470C00005,LB,D6470C00005-0022,31,CHOL,Cholesterol,CHEMISTRY,SERUM,5.5,mmol/L,5.5,5.5,mmol/L,0,5.2,Y,5,DAY 31 (TP2),TREATMENT,2021-04-24,32
D6470C00005,LB,D6470C00005-0022,32,TRIG,Triglycerides,CHEMISTRY,SERUM,2.49,mmol/L,2.49,2.49,mmol/L,0,1.7,Y,5,DAY 31 (TP2),TREATMENT,2021-04-24,32
D6470C00005,LB,D6470C00005-0022,33,HDL,HDL Cholesterol,CHEMISTRY,SERUM,0.9,mmol/L,0.9,0.9,mmol/L,1.0,2.2,Y,5,DAY 31 (TP2),TREATMENT,2021-04-24,32
D6470C00005,LB,D6470C00005-0022,34,SODIUM,Sodium,CHEMISTRY,SERUM,138.0,mmol/L,138.0,138.0,mmol/L,136,145,Y,5,DAY 31 (TP2),TREATMENT,2021-04-24,32
D6470C00005,LB,D6470C00005-0022,35,K,Potassium,CHEMISTRY,SERUM,4.7,mmol/L,4.7,4.7,mmol/L,3.5,5.1,Y,5,DAY 31 (TP2),TREATMENT,2021-04-24,32
D6470C00005,LB,D6470C00005-0022,36,CORTISOL,Cortisol,CHEMISTRY,SERUM,494.0,nmol/L,494.0,494.0,nmol/L,138,635,Y,5,DAY 31 (TP2),TREATMENT,2021-04-24,32
D6470C00005,LB,D6470C00005-0022,37,HGB,Hemoglobin,HEMATOLOGY,SERUM,141.0,g/L,141.0,141.0,g/L,120,160,N,5,DAY 31 (TP2),TREATMENT,2021-04-24,32
D6470C00005,LB,D6470C00005-0022,38,HCT,Hematocrit,HEMATOLOGY,SERUM,0.46,1,0.46,0.46,1,0.36,0.48,N,5,DAY 31 (TP2),TREATMENT,2021-04-24,32
D6470C00005,LB,D6470C00005-0022,39,K,Potassium,URINALYSIS,URINE,42.0,mmol/L,42.0,42.0,mmol/L,,,N,5,DAY 31 (TP2),TREATMENT,2021-04-24,32
D6470C00005,LB,D6470C00005-0022,40,SODIUM,Sodium,URINALYSIS,URINE,74.0,mmol/L,74.0,74.0,mmol/L,,,N,5,DAY 31 (TP2),TREATMENT,2021-04-24,32
D6470C00005,LB,D6470C00005-0022,41,GLUC,Glucose,CHEMISTRY,SERUM,10.3,mmol/L,10.3,10.3,mmol/L,4.1,5.9,Y,6,FOLLOW-UP,FOLLOW-UP,2021-05-24,62
D6470C00005,LB,D6470C00005-0022,42,INSULIN,Insulin,CHEMISTRY,SERUM,64.0,pmol/L,64.0,64.0,pmol/L,18,173,Y,6,FOLLOW-UP,FOLLOW-UP,2021-05-24,62
D6470C00005,LB,D6470C00005-0022,43,CPEPTIDE,C-Peptide,CHEMISTRY,SERUM,0.8,nmol/L,0.8,0.8,nmol/L,0.37,1.47,Y,6,FOLLOW-UP,FOLLOW-UP,2021-05-24,62
D6470C00005,LB,D6470C00005-0022,44,HBA1C,Hemoglobin A1C,CHEMISTRY,SERUM,8.8,%,8.8,8.8,%,4.0,6.0,Y,6,FOLLOW-UP,FOLLOW-UP,2021-05-24,62
D6470C00005,LB,D6470C00005-0022,45,CHOL,Cholesterol,CHEMISTRY,SERUM,4.1,mmol/L,4.1,4.1,mmol/L,0,5.2,Y,6,FOLLOW-UP,FOLLOW-UP,2021-05-24,62
D6470C00005,LB,D6470C00005-0022,46,TRIG,Triglycerides,CHEMISTRY,SERUM,1.18,mmol/L,1.18,1.18,mmol/L,0,1.7,Y,6,FOLLOW-UP,FOLLOW-UP,2021-05-24,62
D6470C00005,LB,D6470C00005-0022,47,HDL,HDL Cholesterol,CHEMISTRY,SERUM,1.11,mmol/L,1.11,1.11,mmol/L,1.0,2.2,Y,6,FOLLOW-UP,FOLLOW-UP,2021-05-24,62
D6470C00005,LB,D6470C00005-0022,48,SODIUM,Sodium,CHEMISTRY,SERUM,141.0,mmol/L,141.0,141.0,mmol/L,136,145,Y,6,FOLLOW-UP,FOLLOW-UP,2021-05-24,62
D6470C00005,LB,D6470C00005-0022,49,K,Potassium,CHEMISTRY,SERUM,4.1,mmol/L,4.1,4.1,mmol/L,3.5,5.1,Y,6,FOLLOW-UP,FOLLOW-UP,2021-05-24,62
D6470C00005,LB,D6470C00005-0022,50,CORTISOL,Cortisol,CHEMISTRY,SERUM,182.0,nmol/L,182.0,182.0,nmol/L,138,635,Y,6,FOLLOW-UP,FOLLOW-UP,2021-05-24,62
D6470C00005,LB,D6470C00005-0022,51,HGB,Hemoglobin,HEMATOLOGY,SERUM,138.0,g/L,138.0,138.0,g/L,120,160,N,6,FOLLOW-UP,FOLLOW-UP,2021-05-24,62
D6470C00005,LB,D6470C00005-0022,52,HCT,Hematocrit,HEMATOLOGY,SERUM,0.4,1,0.4,0.4,1,0.36,0.48,N,6,FOLLOW-UP,FOLLOW-UP,2021-05-24,62
D6470C00005,LB,D6470C00005-0023,1,GLUC,Glucose,CHEMISTRY,SERUM,10.8,mmol/L,10.8,10.8,mmol/L,4.1,5.9,Y,1,SCREENING,SCREENING,2021-03-13,-14
D6470C00005,LB,D6470C00005-0023,2,INSULIN,Insulin,CHEMISTRY,SERUM,109.0,pmol/L,109.0,109.0,pmol/L,18,173,Y,1,SCREENING,SCREENING,2021-03-13,-14
D6470C00005,LB,D6470C00005-0023,3,CPEPTIDE,C-Peptide,CHEMISTRY,SERUM,0.78,nmol/L,0.78,0.78,nmol/L,0.37,1.47,Y,1,SCREENING,SCREENING,2021-03-13,-14
D6470C00005,LB,D6470C00005-0023,4,HBA1C,Hemoglobin A1C,CHEMISTRY,SERUM,8.0,%,8.0,8.0,%,4.0,6.0,Y,1,SCREENING,SCREENING,2021-03-13,-14
D6470C00005,LB,D6470C00005-0023,5,CHOL,Cholesterol,CHEMISTRY,SERUM,6.5,mmol/L,6.5,6.5,mmol/L,0,5.2,Y,1,SCREENING,SCREENING,2021-03-13,-14
D6470C00005,LB,D6470C00005-0023,6,TRIG,Triglycerides,CHEMISTRY,SERUM,3.01,mmol/L,3.01,3.01,mmol/L,0,1.7,Y,1,SCREENING,SCREENING,2021-03-13,-14
D6470C00005,LB,D6470C00005-0023,7,HDL,HDL Cholesterol,CHEMISTRY,SERUM,1.69,mmol/L,1.69,1.69,mmol/L,1.0,2.2,Y,1,SCREENING,SCREENING,2021-03-13,-14
D6470C00005,LB,D6470C00005-0023,8,SODIUM,Sodium,CHEMISTRY,SERUM,136.0,mmol/L,136.0,136.0,mmol/L,136,145,Y,1,SCREENING,SCREENING,2021-03-13,-14
D6470C00005,LB,D6470C00005-0023,9,K,Potassium,CHEMISTRY,SERUM,3.6,mmol/L,3.6,3.6,mmol/L,3.5,5.1,Y,1,SCREENING,SCREENING,2021-03-13,-14
D6470C00005,LB,D6470C00005-0023,10,CORTISOL,Cortisol,CHEMISTRY,SERUM,488.0,nmol/L,488.0,488.0,nmol/L,138,635,Y,1,SCREENING,SCREENING,2021-03-13,-14
D6470C00005,LB,D6470C00005-0023,11,HGB,Hemoglobin,HEMATOLOGY,SERUM,138.0,g/L,138.0,138.0,g/L,120,160,N,1,SCREENING,SCREENING,2021-03-13,-14
D6470C00005,LB,D6470C00005-0023,12,HCT,Hematocrit,HEMATOLOGY,SERUM,0.42,1,0.42,0.42,1,0.36,0.48,N,1,SCREENING,SCREENING,2021-03-13,-14
D6470C00005,LB,D6470C00005-0023,13,GLUC,Glucose,CHEMISTRY,SERUM,8.9,mmol/L,8.9,8.9,mmol/L,4.1,5.9,Y,3,DAY 4 (TP1),TREATMENT,2021-03-31,5
D6470C00005,LB,D6470C00005-0023,14,INSULIN,Insulin,CHEMISTRY,SERUM,138.0,pmol/L,138.0,138.0,pmol/L,18,173,Y,3,DAY 4 (TP1),TREATMENT,2021-03-31,5
D6470C00005,LB,D6470C00005-0023,15,CPEPTIDE,C-Peptide,CHEMISTRY,SERUM,1.57,nmol/L,1.57,1.57,nmol/L,0.37,1.47,Y,3,DAY 4 (TP1),TREATMENT,2021-03-31,5
D6470C00005,LB,D6470C00005-0023,16,HBA1C,Hemoglobin A1C,CHEMISTRY,SERUM,8.6,%,8.6,8.6,%,4.0,6.0,Y,3,DAY 4 (TP1),TREATMENT,2021-03-31,5
D6470C00005,LB,D6470C00005-0023,17,CHOL,Cholesterol,CHEMISTRY,SERUM,5.5,mmol/L,5.5,5.5,mmol/L,0,5.2,Y,3,DAY 4 (TP1),TREATMENT,2021-03-31,5
D6470C00005,LB,D6470C00005-0023,18,TRIG,Triglycerides,CHEMISTRY,SERUM,2.22,mmol/L,2.22,2.22,mmol/L,0,1.7,Y,3,DAY 4 (TP1),TREATMENT,2021-03-31,5
D6470C00005,LB,D6470C00005-0023,19,HDL,HDL Cholesterol,CHEMISTRY,SERUM,1.78,mmol/L,1.78,1.78,mmol/L,1.0,2.2,Y,3,DAY 4 (TP1),TREATMENT,2021-03-31,5
D6470C00005,LB,D6470C00005-0023,20,SODIUM,Sodium,CHEMISTRY,SERUM,140.0,mmol/L,140.0,140.0,mmol/L,136,145,Y,3,DAY 4 (TP1),TREATMENT,2021-03-31,5
D6470C00005,LB,D6470C00005-0023,21,K,Potassium,CHEMISTRY,SERUM,4.0,mmol/L,4.0,4.0,mmol/L,3.5,5.1,Y,3,DAY 4 (TP1),TREATMENT,2021-03-31,5
D6470C00005,LB,D6470C00005-0023,22,CORTISOL,Cortisol,CHEMISTRY,SERUM,313.0,nmol/L,313.0,313.0,nmol/L,138,635,Y,3,DAY 4 (TP1),TREATMENT,2021-03-31,5
D6470C00005,LB,D6470C00005-0023,23,HGB,Hemoglobin,HEMATOLOGY,SERUM,154.0,g/L,154.0,154.0,g/L,120,160,N,3,DAY 4 (TP1),TREATMENT,2021-03-31,5
D6470C00005,LB,D6470C00005-0023,24,HCT,Hematocrit,HEMATOLOGY,SERUM,0.37,1,0.37,0.37,1,0.36,0.48,N,3,DAY 4 (TP1),TREATMENT,2021-03-31,5
D6470C00005,LB,D6470C00005-0023,25,K,Potassium,URINALYSIS,URINE,31.0,mmol/L,31.0,31.0,mmol/L,,,N,3,DAY 4 (TP1),TREATMENT,2021-03-31,5
D6470C00005,LB,D6470C00005-0023,26,SODIUM,Sodium,URINALYSIS,URINE,203.0,mmol/L,203.0,203.0,mmol/L,,,N,3,DAY 4 (TP1),TREATMENT,2021-03-31,5
D6470C00005,LB,D6470C00005-0023,27,GLUC,Glucose,CHEMISTRY,SERUM,11.1,mmol/L,11.1,11.1,mmol/L,4.1,5.9,Y,5,DAY 31 (TP2),TREATMENT,2021-04-27,32
D6470C00005,LB,D6470C00005-0023,28,INSULIN,Insulin,CHEMISTRY,SERUM,54.0,pmol/L,54.0,54.0,pmol/L,18,173,Y,5,DAY 31 (TP2),TREATMENT,2021-04-27,32
D6470C00005,LB,D6470C00005-0023,29,CPEPTIDE,C-Peptide,CHEMISTRY,SERUM,1.23,nmol/L,1.23,1.23,nmol/L,0.37,1.47,Y,5,DAY 31 (TP2),TREATMENT,2021-04-27,32
D6470C00005,LB,D6470C00005-0023,30,HBA1C,Hemoglobin A1C,CHEMISTRY,SERUM,6.6,%,6.6,6.6,%,4.0,6.0,Y,5,DAY 31 (TP2),TREATMENT,2021-04-27,32
D6470C00005,LB,D6470C00005-0023,31,CHOL,Cholesterol,CHEMISTRY,SERUM,5.9,mmol/L,5.9,5.9,mmol/L,0,5.2,Y,5,DAY 31 (TP2),TREATMENT,2021-04-27,32
D6470C00005,LB,D6470C00005-0023,32,TRIG,Triglycerides,CHEMISTRY,SERUM,2.69,mmol/L,2.69,2.69,mmol/L,0,1.7,Y,5,DAY 31 (TP2),TREATMENT,2021-04-27,32
D6470C00005,LB,D6470C00005-0023,33,HDL,HDL Cholesterol,CHEMISTRY,SERUM,1.24,mmol/L,1.24,1.24,mmol/L,1.0,2.2,Y,5,DAY 31 (TP2),TREATMENT,2021-04-27,32
D6470C00005,LB,D6470C00005-0023,34,SODIUM,Sodium,CHEMISTRY,SERUM,138.0,mmol/L,138.0,138.0,mmol/L,136,145,Y,5,DAY 31 (TP2),TREATMENT,2021-04-27,32
D6470C00005,LB,D6470C00005-0023,35,K,Potassium,CHEMISTRY,SERUM,4.6,mmol/L,4.6,4.6,mmol/L,3.5,5.1,Y,5,DAY 31 (TP2),TREATMENT,2021-04-27,32
D6470C00005,LB,D6470C00005-0023,36,CORTISOL,Cortisol,CHEMISTRY,SERUM,201.0,nmol/L,201.0,201.0,nmol/L,138,635,Y,5,DAY 31 (TP2),TREATMENT,2021-04-27,32
D6470C00005,LB,D6470C00005-0023,37,HGB,Hemoglobin,HEMATOLOGY,SERUM,127.0,g/L,127.0,127.0,g/L,120,160,N,5,DAY 31 (TP2),TREATMENT,2021-04-27,32
D6470C00005,LB,D6470C00005-0023,38,HCT,Hematocrit,HEMATOLOGY,SERUM,0.49,1,0.49,0.49,1,0.36,0.48,N,5,DAY 31 (TP2),TREATMENT,2021-04-27,32
D6470C00005,LB,D6470C00005-0023,39,K,Potassium,URINALYSIS,URINE,65.0,mmol/L,65.0,65.0,mmol/L,,,N,5,DAY 31 (TP2),TREATMENT,2021-04-27,32
D6470C00005,LB,D6470C00005-0023,40,SODIUM,Sodium,URINALYSIS,URINE,200.0,mmol/L,200.0,200.0,mmol/L,,,N,5,DAY 31 (TP2),TREATMENT,2021-04-27,32
D6470C00005,LB,D6470C00005-0023,41,GLUC,Glucose,CHEMISTRY,SERUM,7.1,mmol/L,7.1,7.1,mmol/L,4.1,5.9,Y,6,FOLLOW-UP,FOLLOW-UP,2021-05-27,62
D6470C00005,LB,D6470C00005-0023,42,INSULIN,Insulin,CHEMISTRY,SERUM,133.0,pmol/L,133.0,133.0,pmol/L,18,173,Y,6,FOLLOW-UP,FOLLOW-UP,2021-05-27,62
D6470C00005,LB,D6470C00005-0023,43,CPEPTIDE,C-Peptide,CHEMISTRY,SERUM,1.54,nmol/L,1.54,1.54,nmol/L,0.37,1.47,Y,6,FOLLOW-UP,FOLLOW-UP,2021-05-27,62
D6470C00005,LB,D6470C00005-0023,44,HBA1C,Hemoglobin A1C,CHEMISTRY,SERUM,8.1,%,8.1,8.1,%,4.0,6.0,Y,6,FOLLOW-UP,FOLLOW-UP,2021-05-27,62
D6470C00005,LB,D6470C00005-0023,45,CHOL,Cholesterol,CHEMISTRY,SERUM,6.7,mmol/L,6.7,6.7,mmol/L,0,5.2,Y,6,FOLLOW-UP,FOLLOW-UP,2021-05-27,62
D6470C00005,LB,D6470C00005-0023,46,TRIG,Triglycerides,CHEMISTRY,SERUM,3.1,mmol/L,3.1,3.1,mmol/L,0,1.7,Y,6,FOLLOW-UP,FOLLOW-UP,2021-05-27,62
D6470C00005,LB,D6470C00005-0023,47,HDL,HDL Cholesterol,CHEMISTRY,SERUM,1.62,mmol/L,1.62,1.62,mmol/L,1.0,2.2,Y,6,FOLLOW-UP,FOLLOW-UP,2021-05-27,62
D6470C00005,LB,D6470C00005-0023,48,SODIUM,Sodium,CHEMISTRY,SERUM,140.0,mmol/L,140.0,140.0,mmol/L,136,145,Y,6,FOLLOW-UP,FOLLOW-UP,2021-05-27,62
D6470C00005,LB,D6470C00005-0023,49,K,Potassium,CHEMISTRY,SERUM,4.2,mmol/L,4.2,4.2,mmol/L,3.5,5.1,Y,6,FOLLOW-UP,FOLLOW-UP,2021-05-27,62
D6470C00005,LB,D6470C00005-0023,50,CORTISOL,Cortisol,CHEMISTRY,SERUM,218.0,nmol/L,218.0,218.0,nmol/L,138,635,Y,6,FOLLOW-UP,FOLLOW-UP,2021-05-27,62
D6470C00005,LB,D6470C00005-0023,51,HGB,Hemoglobin,HEMATOLOGY,SERUM,129.0,g/L,129.0,129.0,g/L,120,160,N,6,FOLLOW-UP,FOLLOW-UP,2021-05-27,62
D6470C00005,LB,D6470C00005-0023,52,HCT,Hematocrit,HEMATOLOGY,SERUM,0.49,1,0.49,0.49,1,0.36,0.48,N,6,FOLLOW-UP,FOLLOW-UP,2021-05-27,62
D6470C00005,LB,D6470C00005-0024,1,GLUC,Glucose,CHEMISTRY,SERUM,9.6,mmol/L,9.6,9.6,mmol/L,4.1,5.9,Y,1,SCREENING,SCREENING,2021-01-28,-14
D6470C00005,LB,D6470C00005-0024,2,INSULIN,Insulin,CHEMISTRY,SERUM,67.0,pmol/L,67.0,67.0,pmol/L,18,173,Y,1,SCREENING,SCREENING,2021-01-28,-14
D6470C00005,LB,D6470C00005-0024,3,CPEPTIDE,C-Peptide,CHEMISTRY,SERUM,1.01,nmol/L,1.01,1.01,nmol/L,0.37,1.47,Y,1,SCREENING,SCREENING,2021-01-28,-14
D6470C00005,LB,D6470C00005-0024,4,HBA1C,Hemoglobin A1C,CHEMISTRY,SERUM,7.4,%,7.4,7.4,%,4.0,6.0,Y,1,SCREENING,SCREENING,2021-01-28,-14
D6470C00005,LB,D6470C00005-0024,5,CHOL,Cholesterol,CHEMISTRY,SERUM,3.9,mmol/L,3.9,3.9,mmol/L,0,5.2,Y,1,SCREENING,SCREENING,2021-01-28,-14
D6470C00005,LB,D6470C00005-0024,6,TRIG,Triglycerides,CHEMISTRY,SERUM,1.23,mmol/L,1.23,1.23,mmol/L,0,1.7,Y,1,SCREENING,SCREENING,2021-01-28,-14
D6470C00005,LB,D6470C00005-0024,7,HDL,HDL Cholesterol,CHEMISTRY,SERUM,0.89,mmol/L,0.89,0.89,mmol/L,1.0,2.2,Y,1,SCREENING,SCREENING,2021-01-28,-14
D6470C00005,LB,D6470C00005-0024,8,SODIUM,Sodium,CHEMISTRY,SERUM,136.0,mmol/L,136.0,136.0,mmol/L,136,145,Y,1,SCREENING,SCREENING,2021-01-28,-14
D6470C00005,LB,D6470C00005-0024,9,K,Potassium,CHEMISTRY,SERUM,3.8,mmol/L,3.8,3.8,mmol/L,3.5,5.1,Y,1,SCREENING,SCREENING,2021-01-28,-14
D6470C00005,LB,D6470C00005-0024,10,CORTISOL,Cortisol,CHEMISTRY,SERUM,451.0,nmol/L,451.0,451.0,nmol/L,138,635,Y,1,SCREENING,SCREENING,2021-01-28,-14
D6470C00005,LB,D6470C00005-0024,11,HGB,Hemoglobin,HEMATOLOGY,SERUM,164.0,g/L,164.0,164.0,g/L,120,160,N,1,SCREENING,SCREENING,2021-01-28,-14
D6470C00005,LB,D6470C00005-0024,12,HCT,Hematocrit,HEMATOLOGY,SERUM,0.48,1,0.48,0.48,1,0.36,0.48,N,1,SCREENING,SCREENING,2021-01-28,-14
D6470C00005,LB,D6470C00005-0024,13,GLUC,Glucose,CHEMISTRY,SERUM,7.6,mmol/L,7.6,7.6,mmol/L,4.1,5.9,Y,3,DAY 4 (TP1),TREATMENT,2021-02-15,5
D6470C00005,LB,D6470C00005-0024,14,INSULIN,Insulin,CHEMISTRY,SERUM,101.0,pmol/L,101.0,101.0,pmol/L,18,173,Y,3,DAY 4 (TP1),TREATMENT,2021-02-15,5
D6470C00005,LB,D6470C00005-0024,15,CPEPTIDE,C-Peptide,CHEMISTRY,SERUM,0.74,nmol/L,0.74,0.74,nmol/L,0.37,1.47,Y,3,DAY 4 (TP1),TREATMENT,2021-02-15,5
D6470C00005,LB,D6470C00005-0024,16,HBA1C,Hemoglobin A1C,CHEMISTRY,SERUM,8.1,%,8.1,8.1,%,4.0,6.0,Y,3,DAY 4 (TP1),TREATMENT,2021-02-15,5
D6470C00005,LB,D6470C00005-0024,17,CHOL,Cholesterol,CHEMISTRY,SERUM,5.7,mmol/L,5.7,5.7,mmol/L,0,5.2,Y,3,DAY 4 (TP1),TREATMENT,2021-02-15,5
D6470C00005,LB,D6470C00005-0024,18,TRIG,Triglycerides,CHEMISTRY,SERUM,1.55,mmol/L,1.55,1.55,mmol/L,0,1.7,Y,3,DAY 4 (TP1),TREATMENT,2021-02-15,5
D6470C00005,LB,D6470C00005-0024,19,HDL,HDL Cholesterol,CHEMISTRY,SERUM,0.95,mmol/L,0.95,0.95,mmol/L,1.0,2.2,Y,3,DAY 4 (TP1),TREATMENT,2021-02-15,5
D6470C00005,LB,D6470C00005-0024,20,SODIUM,Sodium,CHEMISTRY,SERUM,144.0,mmol/L,144.0,144.0,mmol/L,136,145,Y,3,DAY 4 (TP1),TREATMENT,2021-02-15,5
D6470C00005,LB,D6470C00005-0024,21,K,Potassium,CHEMISTRY,SERUM,3.7,mmol/L,3.7,3.7,mmol/L,3.5,5.1,Y,3,DAY 4 (TP1),TREATMENT,2021-02-15,5
D6470C00005,LB,D6470C00005-0024,22,CORTISOL,Cortisol,CHEMISTRY,SERUM,400.0,nmol/L,400.0,400.0,nmol/L,138,635,Y,3,DAY 4 (TP1),TREATMENT,2021-02-15,5
D6470C00005,LB,D6470C00005-0024,23,HGB,Hemoglobin,HEMATOLOGY,SERUM,130.0,g/L,130.0,130.0,g/L,120,160,N,3,DAY 4 (TP1),TREATMENT,2021-02-15,5
D6470C00005,LB,D6470C00005-0024,24,HCT,Hematocrit,HEMATOLOGY,SERUM,0.46,1,0.46,0.46,1,0.36,0.48,N,3,DAY 4 (TP1),TREATMENT,2021-02-15,5
D6470C00005,LB,D6470C00005-0024,25,K,Potassium,URINALYSIS,URINE,47.0,mmol/L,47.0,47.0,mmol/L,,,N,3,DAY 4 (TP1),TREATMENT,2021-02-15,5
D6470C00005,LB,D6470C00005-0024,26,SODIUM,Sodium,URINALYSIS,URINE,112.0,mmol/L,112.0,112.0,mmol/L,,,N,3,DAY 4 (TP1),TREATMENT,2021-02-15,5
D6470C00005,LB,D6470C00005-0024,27,GLUC,Glucose,CHEMISTRY,SERUM,7.3,mmol/L,7.3,7.3,mmol/L,4.1,5.9,Y,5,DAY 31 (TP2),TREATMENT,2021-03-14,32
D6470C00005,LB,D6470C00005-0024,28,INSULIN,Insulin,CHEMISTRY,SERUM,108.0,pmol/L,108.0,108.0,pmol/L,18,173,Y,5,DAY 31 (TP2),TREATMENT,2021-03-14,32
D6470C00005,LB,D6470C00005-0024,29,CPEPTIDE,C-Peptide,CHEMISTRY,SERUM,0.89,nmol/L,0.89,0.89,nmol/L,0.37,1.47,Y,5,DAY 31 (TP2),TREATMENT,2021-03-14,32
D6470C00005,LB,D6470C00005-0024,30,HBA1C,Hemoglobin A1C,CHEMISTRY,SERUM,7.4,%,7.4,7.4,%,4.0,6.0,Y,5,DAY 31 (TP2),TREATMENT,2021-03-14,32
D6470C00005,LB,D6470C00005-0024,31,CHOL,Cholesterol,CHEMISTRY,SERUM,3.6,mmol/L,3.6,3.6,mmol/L,0,5.2,Y,5,DAY 31 (TP2),TREATMENT,2021-03-14,32
D6470C00005,LB,D6470C00005-0024,32,TRIG,Triglycerides,CHEMISTRY,SERUM,3.13,mmol/L,3.13,3.13,mmol/L,0,1.7,Y,5,DAY 31 (TP2),TREATMENT,2021-03-14,32
D6470C00005,LB,D6470C00005-0024,33,HDL,HDL Cholesterol,CHEMISTRY,SERUM,0.93,mmol/L,0.93,0.93,mmol/L,1.0,2.2,Y,5,DAY 31 (TP2),TREATMENT,2021-03-14,32
D6470C00005,LB,D6470C00005-0024,34,SODIUM,Sodium,CHEMISTRY,SERUM,142.0,mmol/L,142.0,142.0,mmol/L,136,145,Y,5,DAY 31 (TP2),TREATMENT,2021-03-14,32
D6470C00005,LB,D6470C00005-0024,35,K,Potassium,CHEMISTRY,SERUM,4.2,mmol/L,4.2,4.2,mmol/L,3.5,5.1,Y,5,DAY 31 (TP2),TREATMENT,2021-03-14,32
D6470C00005,LB,D6470C00005-0024,36,CORTISOL,Cortisol,CHEMISTRY,SERUM,535.0,nmol/L,535.0,535.0,nmol/L,138,635,Y,5,DAY 31 (TP2),TREATMENT,2021-03-14,32
D6470C00005,LB,D6470C00005-0024,37,HGB,Hemoglobin,HEMATOLOGY,SERUM,146.0,g/L,146.0,146.0,g/L,120,160,N,5,DAY 31 (TP2),TREATMENT,2021-03-14,32
D6470C00005,LB,D6470C00005-0024,38,HCT,Hematocrit,HEMATOLOGY,SERUM,0.38,1,0.38,0.38,1,0.36,0.48,N,5,DAY 31 (TP2),TREATMENT,2021-03-14,32
D6470C00005,LB,D6470C00005-0024,39,K,Potassium,URINALYSIS,URINE,40.0,mmol/L,40.0,40.0,mmol/L,,,N,5,DAY 31 (TP2),TREATMENT,2021-03-14,32
D6470C00005,LB,D6470C00005-0024,40,SODIUM,Sodium,URINALYSIS,URINE,57.0,mmol/L,57.0,57.0,mmol/L,,,N,5,DAY 31 (TP2),TREATMENT,2021-03-14,32
D6470C00005,LB,D6470C00005-0024,41,GLUC,Glucose,CHEMISTRY,SERUM,6.5,mmol/L,6.5,6.5,mmol/L,4.1,5.9,Y,6,FOLLOW-UP,FOLLOW-UP,2021-04-13,62
D6470C00005,LB,D6470C00005-0024,42,INSULIN,Insulin,CHEMISTRY,SERUM,89.0,pmol/L,89.0,89.0,pmol/L,18,173,Y,6,FOLLOW-UP,FOLLOW-UP,2021-04-13,62
D6470C00005,LB,D6470C00005-0024,43,CPEPTIDE,C-Peptide,CHEMISTRY,SERUM,0.42,nmol/L,0.42,0.42,nmol/L,0.37,1.47,Y,6,FOLLOW-UP,FOLLOW-UP,2021-04-13,62
D6470C00005,LB,D6470C00005-0024,44,HBA1C,Hemoglobin A1C,CHEMISTRY,SERUM,8.9,%,8.9,8.9,%,4.0,6.0,Y,6,FOLLOW-UP,FOLLOW-UP,2021-04-13,62
D6470C00005,LB,D6470C00005-0024,45,CHOL,Cholesterol,CHEMISTRY,SERUM,4.2,mmol/L,4.2,4.2,mmol/L,0,5.2,Y,6,FOLLOW-UP,FOLLOW-UP,2021-04-13,62
D6470C00005,LB,D6470C00005-0024,46,TRIG,Triglycerides,CHEMISTRY,SERUM,0.94,mmol/L,0.94,0.94,mmol/L,0,1.7,Y,6,FOLLOW-UP,FOLLOW-UP,2021-04-13,62
D6470C00005,LB,D6470C00005-0024,47,HDL,HDL Cholesterol,CHEMISTRY,SERUM,1.52,mmol/L,1.52,1.52,mmol/L,1.0,2.2,Y,6,FOLLOW-UP,FOLLOW-UP,2021-04-13,62
D6470C00005,LB,D6470C00005-0024,48,SODIUM,Sodium,CHEMISTRY,SERUM,145.0,mmol/L,145.0,145.0,mmol/L,136,145,Y,6,FOLLOW-UP,FOLLOW-UP,2021-04-13,62
D6470C00005,LB,D6470C00005-0024,49,K,Potassium,CHEMISTRY,SERUM,5.0,mmol/L,5.0,5.0,mmol/L,3.5,5.1,Y,6,FOLLOW-UP,FOLLOW-UP,2021-04-13,62
D6470C00005,LB,D6470C00005-0024,50,CORTISOL,Cortisol,CHEMISTRY,SERUM,290.0,nmol/L,290.0,290.0,nmol/L,138,635,Y,6,FOLLOW-UP,FOLLOW-UP,2021-04-13,62
D6470C00005,LB,D6470C00005-0024,51,HGB,Hemoglobin,HEMATOLOGY,SERUM,128.0,g/L,128.0,128.0,g/L,120,160,N,6,FOLLOW-UP,FOLLOW-UP,2021-04-13,62
D6470C00005,LB,D6470C00005-0024,52,HCT,Hematocrit,HEMATOLOGY,SERUM,0.46,1,0.46,0.46,1,0.36,0.48,N,6,FOLLOW-UP,FOLLOW-UP,2021-04-13,62
D6470C00005,LB,D6470C00005-0025,1,GLUC,Glucose,CHEMISTRY,SERUM,9.4,mmol/L,9.4,9.4,mmol/L,4.1,5.9,Y,1,SCREENING,SCREENING,2020-11-30,-14
D6470C00005,LB,D6470C00005-0025,2,INSULIN,Insulin,CHEMISTRY,SERUM,150.0,pmol/L,150.0,150.0,pmol/L,18,173,Y,1,SCREENING,SCREENING,2020-11-30,-14
D6470C00005,LB,D6470C00005-0025,3,CPEPTIDE,C-Peptide,CHEMISTRY,SERUM,1.45,nmol/L,1.45,1.45,nmol/L,0.37,1.47,Y,1,SCREENING,SCREENING,2020-11-30,-14
D6470C00005,LB,D6470C00005-0025,4,HBA1C,Hemoglobin A1C,CHEMISTRY,SERUM,7.1,%,7.1,7.1,%,4.0,6.0,Y,1,SCREENING,SCREENING,2020-11-30,-14
D6470C00005,LB,D6470C00005-0025,5,CHOL,Cholesterol,CHEMISTRY,SERUM,5.5,mmol/L,5.5,5.5,mmol/L,0,5.2,Y,1,SCREENING,SCREENING,2020-11-30,-14
D6470C00005,LB,D6470C00005-0025,6,TRIG,Triglycerides,CHEMISTRY,SERUM,1.44,mmol/L,1.44,1.44,mmol/L,0,1.7,Y,1,SCREENING,SCREENING,2020-11-30,-14
D6470C00005,LB,D6470C00005-0025,7,HDL,HDL Cholesterol,CHEMISTRY,SERUM,0.92,mmol/L,0.92,0.92,mmol/L,1.0,2.2,Y,1,SCREENING,SCREENING,2020-11-30,-14
D6470C00005,LB,D6470C00005-0025,8,SODIUM,Sodium,CHEMISTRY,SERUM,141.0,mmol/L,141.0,141.0,mmol/L,136,145,Y,1,SCREENING,SCREENING,2020-11-30,-14
D6470C00005,LB,D6470C00005-0025,9,K,Potassium,CHEMISTRY,SERUM,3.7,mmol/L,3.7,3.7,mmol/L,3.5,5.1,Y,1,SCREENING,SCREENING,2020-11-30,-14
D6470C00005,LB,D6470C00005-0025,10,CORTISOL,Cortisol,CHEMISTRY,SERUM,297.0,nmol/L,297.0,297.0,nmol/L,138,635,Y,1,SCREENING,SCREENING,2020-11-30,-14
D6470C00005,LB,D6470C00005-0025,11,HGB,Hemoglobin,HEMATOLOGY,SERUM,125.0,g/L,125.0,125.0,g/L,120,160,N,1,SCREENING,SCREENING,2020-11-30,-14
D6470C00005,LB,D6470C00005-0025,12,HCT,Hematocrit,HEMATOLOGY,SERUM,0.44,1,0.44,0.44,1,0.36,0.48,N,1,SCREENING,SCREENING,2020-11-30,-14
D6470C00005,LB,D6470C00005-0025,13,GLUC,Glucose,CHEMISTRY,SERUM,9.3,mmol/L,9.3,9.3,mmol/L,4.1,5.9,Y,3,DAY 4 (TP1),TREATMENT,2020-12-18,5
D6470C00005,LB,D6470C00005-0025,14,INSULIN,Insulin,CHEMISTRY,SERUM,135.0,pmol/L,135.0,135.0,pmol/L,18,173,Y,3,DAY 4 (TP1),TREATMENT,2020-12-18,5
D6470C00005,LB,D6470C00005-0025,15,CPEPTIDE,C-Peptide,CHEMISTRY,SERUM,1.32,nmol/L,1.32,1.32,nmol/L,0.37,1.47,Y,3,DAY 4 (TP1),TREATMENT,2020-12-18,5
D6470C00005,LB,D6470C00005-0025,16,HBA1C,Hemoglobin A1C,CHEMISTRY,SERUM,7.9,%,7.9,7.9,%,4.0,6.0,Y,3,DAY 4 (TP1),TREATMENT,2020-12-18,5
D6470C00005,LB,D6470C00005-0025,17,CHOL,Cholesterol,CHEMISTRY,SERUM,4.0,mmol/L,4.0,4.0,mmol/L,0,5.2,Y,3,DAY 4 (TP1),TREATMENT,2020-12-18,5
D6470C00005,LB,D6470C00005-0025,18,TRIG,Triglycerides,CHEMISTRY,SERUM,1.64,mmol/L,1.64,1.64,mmol/L,0,1.7,Y,3,DAY 4 (TP1),TREATMENT,2020-12-18,5
D6470C00005,LB,D6470C00005-0025,19,HDL,HDL Cholesterol,CHEMISTRY,SERUM,1.15,mmol/L,1.15,1.15,mmol/L,1.0,2.2,Y,3,DAY 4 (TP1),TREATMENT,2020-12-18,5
D6470C00005,LB,D6470C00005-0025,20,SODIUM,Sodium,CHEMISTRY,SERUM,139.0,mmol/L,139.0,139.0,mmol/L,136,145,Y,3,DAY 4 (TP1),TREATMENT,2020-12-18,5
D6470C00005,LB,D6470C00005-0025,21,K,Potassium,CHEMISTRY,SERUM,4.9,mmol/L,4.9,4.9,mmol/L,3.5,5.1,Y,3,DAY 4 (TP1),TREATMENT,2020-12-18,5
D6470C00005,LB,D6470C00005-0025,22,CORTISOL,Cortisol,CHEMISTRY,SERUM,229.0,nmol/L,229.0,229.0,nmol/L,138,635,Y,3,DAY 4 (TP1),TREATMENT,2020-12-18,5
D6470C00005,LB,D6470C00005-0025,23,HGB,Hemoglobin,HEMATOLOGY,SERUM,126.0,g/L,126.0,126.0,g/L,120,160,N,3,DAY 4 (TP1),TREATMENT,2020-12-18,5
D6470C00005,LB,D6470C00005-0025,24,HCT,Hematocrit,HEMATOLOGY,SERUM,0.5,1,0.5,0.5,1,0.36,0.48,N,3,DAY 4 (TP1),TREATMENT,2020-12-18,5
D6470C00005,LB,D6470C00005-0025,25,K,Potassium,URINALYSIS,URINE,23.0,mmol/L,23.0,23.0,mmol/L,,,N,3,DAY 4 (TP1),TREATMENT,2020-12-18,5
D6470C00005,LB,D6470C00005-0025,26,SODIUM,Sodium,URINALYSIS,URINE,47.0,mmol/L,47.0,47.0,mmol/L,,,N,3,DAY 4 (TP1),TREATMENT,2020-12-18,5
D6470C00005,LB,D6470C00005-0025,27,GLUC,Glucose,CHEMISTRY,SERUM,8.6,mmol/L,8.6,8.6,mmol/L,4.1,5.9,Y,5,DAY 31 (TP2),TREATMENT,2021-01-14,32
D6470C00005,LB,D6470C00005-0025,28,INSULIN,Insulin,CHEMISTRY,SERUM,62.0,pmol/L,62.0,62.0,pmol/L,18,173,Y,5,DAY 31 (TP2),TREATMENT,2021-01-14,32
D6470C00005,LB,D6470C00005-0025,29,CPEPTIDE,C-Peptide,CHEMISTRY,SERUM,1.33,nmol/L,1.33,1.33,nmol/L,0.37,1.47,Y,5,DAY 31 (TP2),TREATMENT,2021-01-14,32
D6470C00005,LB,D6470C00005-0025,30,HBA1C,Hemoglobin A1C,CHEMISTRY,SERUM,7.9,%,7.9,7.9,%,4.0,6.0,Y,5,DAY 31 (TP2),TREATMENT,2021-01-14,32
D6470C00005,LB,D6470C00005-0025,31,CHOL,Cholesterol,CHEMISTRY,SERUM,6.4,mmol/L,6.4,6.4,mmol/L,0,5.2,Y,5,DAY 31 (TP2),TREATMENT,2021-01-14,32
D6470C00005,LB,D6470C00005-0025,32,TRIG,Triglycerides,CHEMISTRY,SERUM,0.97,mmol/L,0.97,0.97,mmol/L,0,1.7,Y,5,DAY 31 (TP2),TREATMENT,2021-01-14,32
D6470C00005,LB,D6470C00005-0025,33,HDL,HDL Cholesterol,CHEMISTRY,SERUM,1.64,mmol/L,1.64,1.64,mmol/L,1.0,2.2,Y,5,DAY 31 (TP2),TREATMENT,2021-01-14,32
D6470C00005,LB,D6470C00005-0025,34,SODIUM,Sodium,CHEMISTRY,SERUM,144.0,mmol/L,144.0,144.0,mmol/L,136,145,Y,5,DAY 31 (TP2),TREATMENT,2021-01-14,32
D6470C00005,LB,D6470C00005-0025,35,K,Potassium,CHEMISTRY,SERUM,4.9,mmol/L,4.9,4.9,mmol/L,3.5,5.1,Y,5,DAY 31 (TP2),TREATMENT,2021-01-14,32
D6470C00005,LB,D6470C00005-0025,36,CORTISOL,Cortisol,CHEMISTRY,SERUM,390.0,nmol/L,390.0,390.0,nmol/L,138,635,Y,5,DAY 31 (TP2),TREATMENT,2021-01-14,32
D6470C00005,LB,D6470C00005-0025,37,HGB,Hemoglobin,HEMATOLOGY,SERUM,130.0,g/L,130.0,130.0,g/L,120,160,N,5,DAY 31 (TP2),TREATMENT,2021-01-14,32
D6470C00005,LB,D6470C00005-0025,38,HCT,Hematocrit,HEMATOLOGY,SERUM,0.37,1,0.37,0.37,1,0.36,0.48,N,5,DAY 31 (TP2),TREATMENT,2021-01-14,32
D6470C00005,LB,D6470C00005-0025,39,K,Potassium,URINALYSIS,URINE,77.0,mmol/L,77.0,77.0,mmol/L,,,N,5,DAY 31 (TP2),TREATMENT,2021-01-14,32
D6470C00005,LB,D6470C00005-0025,40,SODIUM,Sodium,URINALYSIS,URINE,188.0,mmol/L,188.0,188.0,mmol/L,,,N,5,DAY 31 (TP2),TREATMENT,2021-01-14,32
D6470C00005,LB,D6470C00005-0025,41,GLUC,Glucose,CHEMISTRY,SERUM,6.9,mmol/L,6.9,6.9,mmol/L,4.1,5.9,Y,6,FOLLOW-UP,FOLLOW-UP,2021-02-13,62
D6470C00005,LB,D6470C00005-0025,42,INSULIN,Insulin,CHEMISTRY,SERUM,143.0,pmol/L,143.0,143.0,pmol/L,18,173,Y,6,FOLLOW-UP,FOLLOW-UP,2021-02-13,62
D6470C00005,LB,D6470C00005-0025,43,CPEPTIDE,C-Peptide,CHEMISTRY,SERUM,1.27,nmol/L,1.27,1.27,nmol/L,0.37,1.47,Y,6,FOLLOW-UP,FOLLOW-UP,2021-02-13,62
D6470C00005,LB,D6470C00005-0025,44,HBA1C,Hemoglobin A1C,CHEMISTRY,SERUM,7.4,%,7.4,7.4,%,4.0,6.0,Y,6,FOLLOW-UP,FOLLOW-UP,2021-02-13,62
D6470C00005,LB,D6470C00005-0025,45,CHOL,Cholesterol,CHEMISTRY,SERUM,6.7,mmol/L,6.7,6.7,mmol/L,0,5.2,Y,6,FOLLOW-UP,FOLLOW-UP,2021-02-13,62
D6470C00005,LB,D6470C00005-0025,46,TRIG,Triglycerides,CHEMISTRY,SERUM,1.44,mmol/L,1.44,1.44,mmol/L,0,1.7,Y,6,FOLLOW-UP,FOLLOW-UP,2021-02-13,62
D6470C00005,LB,D6470C00005-0025,47,HDL,HDL Cholesterol,CHEMISTRY,SERUM,1.72,mmol/L,1.72,1.72,mmol/L,1.0,2.2,Y,6,FOLLOW-UP,FOLLOW-UP,2021-02-13,62
D6470C00005,LB,D6470C00005-0025,48,SODIUM,Sodium,CHEMISTRY,SERUM,138.0,mmol/L,138.0,138.0,mmol/L,136,145,Y,6,FOLLOW-UP,FOLLOW-UP,2021-02-13,62
D6470C00005,LB,D6470C00005-0025,49,K,Potassium,CHEMISTRY,SERUM,4.0,mmol/L,4.0,4.0,mmol/L,3.5,5.1,Y,6,FOLLOW-UP,FOLLOW-UP,2021-02-13,62
D6470C00005,LB,D6470C00005-0025,50,CORTISOL,Cortisol,CHEMISTRY,SERUM,150.0,nmol/L,150.0,150.0,nmol/L,138,635,Y,6,FOLLOW-UP,FOLLOW-UP,2021-02-13,62
D6470C00005,LB,D6470C00005-0025,51,HGB,Hemoglobin,HEMATOLOGY,SERUM,130.0,g/L,130.0,130.0,g/L,120,160,N,6,FOLLOW-UP,FOLLOW-UP,2021-02-13,62
D6470C00005,LB,D6470C00005-0025,52,HCT,Hematocrit,HEMATOLOGY,SERUM,0.49,1,0.49,0.49,1,0.36,0.48,N,6,FOLLOW-UP,FOLLOW-UP,2021-02-13,62
D6470C00005,LB,D6470C00005-0026,1,GLUC,Glucose,CHEMISTRY,SERUM,11.7,mmol/L,11.7,11.7,mmol/L,4.1,5.9,Y,1,SCREENING,SCREENING,2021-01-25,-14
D6470C00005,LB,D6470C00005-0026,2,INSULIN,Insulin,CHEMISTRY,SERUM,159.0,pmol/L,159.0,159.0,pmol/L,18,173,Y,1,SCREENING,SCREENING,2021-01-25,-14
D6470C00005,LB,D6470C00005-0026,3,CPEPTIDE,C-Peptide,CHEMISTRY,SERUM,1.32,nmol/L,1.32,1.32,nmol/L,0.37,1.47,Y,1,SCREENING,SCREENING,2021-01-25,-14
D6470C00005,LB,D6470C00005-0026,4,HBA1C,Hemoglobin A1C,CHEMISTRY,SERUM,7.9,%,7.9,7.9,%,4.0,6.0,Y,1,SCREENING,SCREENING,2021-01-25,-14
D6470C00005,LB,D6470C00005-0026,5,CHOL,Cholesterol,CHEMISTRY,SERUM,5.2,mmol/L,5.2,5.2,mmol/L,0,5.2,Y,1,SCREENING,SCREENING,2021-01-25,-14
D6470C00005,LB,D6470C00005-0026,6,TRIG,Triglycerides,CHEMISTRY,SERUM,2.5,mmol/L,2.5,2.5,mmol/L,0,1.7,Y,1,SCREENING,SCREENING,2021-01-25,-14
D6470C00005,LB,D6470C00005-0026,7,HDL,HDL Cholesterol,CHEMISTRY,SERUM,1.1,mmol/L,1.1,1.1,mmol/L,1.0,2.2,Y,1,SCREENING,SCREENING,2021-01-25,-14
D6470C00005,LB,D6470C00005-0026,8,SODIUM,Sodium,CHEMISTRY,SERUM,143.0,mmol/L,143.0,143.0,mmol/L,136,145,Y,1,SCREENING,SCREENING,2021-01-25,-14
D6470C00005,LB,D6470C00005-0026,9,K,Potassium,CHEMISTRY,SERUM,4.8,mmol/L,4.8,4.8,mmol/L,3.5,5.1,Y,1,SCREENING,SCREENING,2021-01-25,-14
D6470C00005,LB,D6470C00005-0026,10,CORTISOL,Cortisol,CHEMISTRY,SERUM,384.0,nmol/L,384.0,384.0,nmol/L,138,635,Y,1,SCREENING,SCREENING,2021-01-25,-14
D6470C00005,LB,D6470C00005-0026,11,HGB,Hemoglobin,HEMATOLOGY,SERUM,134.0,g/L,134.0,134.0,g/L,120,160,N,1,SCREENING,SCREENING,2021-01-25,-14
D6470C00005,LB,D6470C00005-0026,12,HCT,Hematocrit,HEMATOLOGY,SERUM,0.5,1,0.5,0.5,1,0.36,0.48,N,1,SCREENING,SCREENING,2021-01-25,-14
D6470C00005,LB,D6470C00005-0026,13,GLUC,Glucose,CHEMISTRY,SERUM,11.3,mmol/L,11.3,11.3,mmol/L,4.1,5.9,Y,3,DAY 4 (TP1),TREATMENT,2021-02-12,5
D6470C00005,LB,D6470C00005-0026,14,INSULIN,Insulin,CHEMISTRY,SERUM,50.0,pmol/L,50.0,50.0,pmol/L,18,173,Y,3,DAY 4 (TP1),TREATMENT,2021-02-12,5
D6470C00005,LB,D6470C00005-0026,15,CPEPTIDE,C-Peptide,CHEMISTRY,SERUM,0.86,nmol/L,0.86,0.86,nmol/L,0.37,1.47,Y,3,DAY 4 (TP1),TREATMENT,2021-02-12,5
D6470C00005,LB,D6470C00005-0026,16,HBA1C,Hemoglobin A1C,CHEMISTRY,SERUM,6.2,%,6.2,6.2,%,4.0,6.0,Y,3,DAY 4 (TP1),TREATMENT,2021-02-12,5
D6470C00005,LB,D6470C00005-0026,17,CHOL,Cholesterol,CHEMISTRY,SERUM,5.9,mmol/L,5.9,5.9,mmol/L,0,5.2,Y,3,DAY 4 (TP1),TREATMENT,2021-02-12,5
D6470C00005,LB,D6470C00005-0026,18,TRIG,Triglycerides,CHEMISTRY,SERUM,2.89,mmol/L,2.89,2.89,mmol/L,0,1.7,Y,3,DAY 4 (TP1),TREATMENT,2021-02-12,5
D6470C00005,LB,D6470C00005-0026,19,HDL,HDL Cholesterol,CHEMISTRY,SERUM,1.22,mmol/L,1.22,1.22,mmol/L,1.0,2.2,Y,3,DAY 4 (TP1),TREATMENT,2021-02-12,5
D6470C00005,LB,D6470C00005-0026,20,SODIUM,Sodium,CHEMISTRY,SERUM,138.0,mmol/L,138.0,138.0,mmol/L,136,145,Y,3,DAY 4 (TP1),TREATMENT,2021-02-12,5
D6470C00005,LB,D6470C00005-0026,21,K,Potassium,CHEMISTRY,SERUM,4.9,mmol/L,4.9,4.9,mmol/L,3.5,5.1,Y,3,DAY 4 (TP1),TREATMENT,2021-02-12,5
D6470C00005,LB,D6470C00005-0026,22,CORTISOL,Cortisol,CHEMISTRY,SERUM,434.0,nmol/L,434.0,434.0,nmol/L,138,635,Y,3,DAY 4 (TP1),TREATMENT,2021-02-12,5
D6470C00005,LB,D6470C00005-0026,23,HGB,Hemoglobin,HEMATOLOGY,SERUM,144.0,g/L,144.0,144.0,g/L,120,160,N,3,DAY 4 (TP1),TREATMENT,2021-02-12,5
D6470C00005,LB,D6470C00005-0026,24,HCT,Hematocrit,HEMATOLOGY,SERUM,0.4,1,0.4,0.4,1,0.36,0.48,N,3,DAY 4 (TP1),TREATMENT,2021-02-12,5
D6470C00005,LB,D6470C00005-0026,25,K,Potassium,URINALYSIS,URINE,53.0,mmol/L,53.0,53.0,mmol/L,,,N,3,DAY 4 (TP1),TREATMENT,2021-02-12,5
D6470C00005,LB,D6470C00005-0026,26,SODIUM,Sodium,URINALYSIS,URINE,177.0,mmol/L,177.0,177.0,mmol/L,,,N,3,DAY 4 (TP1),TREATMENT,2021-02-12,5
D6470C00005,LB,D6470C00005-0026,27,GLUC,Glucose,CHEMISTRY,SERUM,8.8,mmol/L,8.8,8.8,mmol/L,4.1,5.9,Y,5,DAY 31 (TP2),TREATMENT,2021-03-11,32
D6470C00005,LB,D6470C00005-0026,28,INSULIN,Insulin,CHEMISTRY,SERUM,150.0,pmol/L,150.0,150.0,pmol/L,18,173,Y,5,DAY 31 (TP2),TREATMENT,2021-03-11,32
D6470C00005,LB,D6470C00005-0026,29,CPEPTIDE,C-Peptide,CHEMISTRY,SERUM,1.48,nmol/L,1.48,1.48,nmol/L,0.37,1.47,Y,5,DAY 31 (TP2),TREATMENT,2021-03-11,32
D6470C00005,LB,D6470C00005-0026,30,HBA1C,Hemoglobin A1C,CHEMISTRY,SERUM,6.2,%,6.2,6.2,%,4.0,6.0,Y,5,DAY 31 (TP2),TREATMENT,2021-03-11,32
D6470C00005,LB,D6470C00005-0026,31,CHOL,Cholesterol,CHEMISTRY,SERUM,4.2,mmol/L,4.2,4.2,mmol/L,0,5.2,Y,5,DAY 31 (TP2),TREATMENT,2021-03-11,32
D6470C00005,LB,D6470C00005-0026,32,TRIG,Triglycerides,CHEMISTRY,SERUM,1.58,mmol/L,1.58,1.58,mmol/L,0,1.7,Y,5,DAY 31 (TP2),TREATMENT,2021-03-11,32
D6470C00005,LB,D6470C00005-0026,33,HDL,HDL Cholesterol,CHEMISTRY,SERUM,0.98,mmol/L,0.98,0.98,mmol/L,1.0,2.2,Y,5,DAY 31 (TP2),TREATMENT,2021-03-11,32
D6470C00005,LB,D6470C00005-0026,34,SODIUM,Sodium,CHEMISTRY,SERUM,145.0,mmol/L,145.0,145.0,mmol/L,136,145,Y,5,DAY 31 (TP2),TREATMENT,2021-03-11,32
D6470C00005,LB,D6470C00005-0026,35,K,Potassium,CHEMISTRY,SERUM,4.2,mmol/L,4.2,4.2,mmol/L,3.5,5.1,Y,5,DAY 31 (TP2),TREATMENT,2021-03-11,32
D6470C00005,LB,D6470C00005-0026,36,CORTISOL,Cortisol,CHEMISTRY,SERUM,461.0,nmol/L,461.0,461.0,nmol/L,138,635,Y,5,DAY 31 (TP2),TREATMENT,2021-03-11,32
D6470C00005,LB,D6470C00005-0026,37,HGB,Hemoglobin,HEMATOLOGY,SERUM,142.0,g/L,142.0,142.0,g/L,120,160,N,5,DAY 31 (TP2),TREATMENT,2021-03-11,32
D6470C00005,LB,D6470C00005-0026,38,HCT,Hematocrit,HEMATOLOGY,SERUM,0.48,1,0.48,0.48,1,0.36,0.48,N,5,DAY 31 (TP2),TREATMENT,2021-03-11,32
D6470C00005,LB,D6470C00005-0026,39,K,Potassium,URINALYSIS,URINE,68.0,mmol/L,68.0,68.0,mmol/L,,,N,5,DAY 31 (TP2),TREATMENT,2021-03-11,32
D6470C00005,LB,D6470C00005-0026,40,SODIUM,Sodium,URINALYSIS,URINE,43.0,mmol/L,43.0,43.0,mmol/L,,,N,5,DAY 31 (TP2),TREATMENT,2021-03-11,32
D6470C00005,LB,D6470C00005-0026,41,GLUC,Glucose,CHEMISTRY,SERUM,7.9,mmol/L,7.9,7.9,mmol/L,4.1,5.9,Y,6,FOLLOW-UP,FOLLOW-UP,2021-04-10,62
D6470C00005,LB,D6470C00005-0026,42,INSULIN,Insulin,CHEMISTRY,SERUM,153.0,pmol/L,153.0,153.0,pmol/L,18,173,Y,6,FOLLOW-UP,FOLLOW-UP,2021-04-10,62
D6470C00005,LB,D6470C00005-0026,43,CPEPTIDE,C-Peptide,CHEMISTRY,SERUM,0.87,nmol/L,0.87,0.87,nmol/L,0.37,1.47,Y,6,FOLLOW-UP,FOLLOW-UP,2021-04-10,62
D6470C00005,LB,D6470C00005-0026,44,HBA1C,Hemoglobin A1C,CHEMISTRY,SERUM,6.2,%,6.2,6.2,%,4.0,6.0,Y,6,FOLLOW-UP,FOLLOW-UP,2021-04-10,62
D6470C00005,LB,D6470C00005-0026,45,CHOL,Cholesterol,CHEMISTRY,SERUM,6.1,mmol/L,6.1,6.1,mmol/L,0,5.2,Y,6,FOLLOW-UP,FOLLOW-UP,2021-04-10,62
D6470C00005,LB,D6470C00005-0026,46,TRIG,Triglycerides,CHEMISTRY,SERUM,1.47,mmol/L,1.47,1.47,mmol/L,0,1.7,Y,6,FOLLOW-UP,FOLLOW-UP,2021-04-10,62
D6470C00005,LB,D6470C00005-0026,47,HDL,HDL Cholesterol,CHEMISTRY,SERUM,1.42,mmol/L,1.42,1.42,mmol/L,1.0,2.2,Y,6,FOLLOW-UP,FOLLOW-UP,2021-04-10,62
D6470C00005,LB,D6470C00005-0026,48,SODIUM,Sodium,CHEMISTRY,SERUM,137.0,mmol/L,137.0,137.0,mmol/L,136,145,Y,6,FOLLOW-UP,FOLLOW-UP,2021-04-10,62
D6470C00005,LB,D6470C00005-0026,49,K,Potassium,CHEMISTRY,SERUM,3.9,mmol/L,3.9,3.9,mmol/L,3.5,5.1,Y,6,FOLLOW-UP,FOLLOW-UP,2021-04-10,62
D6470C00005,LB,D6470C00005-0026,50,CORTISOL,Cortisol,CHEMISTRY,SERUM,181.0,nmol/L,181.0,181.0,nmol/L,138,635,Y,6,FOLLOW-UP,FOLLOW-UP,2021-04-10,62
D6470C00005,LB,D6470C00005-0026,51,HGB,Hemoglobin,HEMATOLOGY,SERUM,150.0,g/L,150.0,150.0,g/L,120,160,N,6,FOLLOW-UP,FOLLOW-UP,2021-04-10,62
D6470C00005,LB,D6470C00005-0026,52,HCT,Hematocrit,HEMATOLOGY,SERUM,0.5,1,0.5,0.5,1,0.36,0.48,N,6,FOLLOW-UP,FOLLOW-UP,2021-04-10,62
D6470C00005,LB,D6470C00005-0027,1,GLUC,Glucose,CHEMISTRY,SERUM,9.3,mmol/L,9.3,9.3,mmol/L,4.1,5.9,Y,1,SCREENING,SCREENING,2021-01-01,-14
D6470C00005,LB,D6470C00005-0027,2,INSULIN,Insulin,CHEMISTRY,SERUM,139.0,pmol/L,139.0,139.0,pmol/L,18,173,Y,1,SCREENING,SCREENING,2021-01-01,-14
D6470C00005,LB,D6470C00005-0027,3,CPEPTIDE,C-Peptide,CHEMISTRY,SERUM,1.33,nmol/L,1.33,1.33,nmol/L,0.37,1.47,Y,1,SCREENING,SCREENING,2021-01-01,-14
D6470C00005,LB,D6470C00005-0027,4,HBA1C,Hemoglobin A1C,CHEMISTRY,SERUM,8.6,%,8.6,8.6,%,4.0,6.0,Y,1,SCREENING,SCREENING,2021-01-01,-14
D6470C00005,LB,D6470C00005-0027,5,CHOL,Cholesterol,CHEMISTRY,SERUM,4.4,mmol/L,4.4,4.4,mmol/L,0,5.2,Y,1,SCREENING,SCREENING,2021-01-01,-14
D6470C00005,LB,D6470C00005-0027,6,TRIG,Triglycerides,CHEMISTRY,SERUM,2.33,mmol/L,2.33,2.33,mmol/L,0,1.7,Y,1,SCREENING,SCREENING,2021-01-01,-14
D6470C00005,LB,D6470C00005-0027,7,HDL,HDL Cholesterol,CHEMISTRY,SERUM,1.49,mmol/L,1.49,1.49,mmol/L,1.0,2.2,Y,1,SCREENING,SCREENING,2021-01-01,-14
D6470C00005,LB,D6470C00005-0027,8,SODIUM,Sodium,CHEMISTRY,SERUM,144.0,mmol/L,144.0,144.0,mmol/L,136,145,Y,1,SCREENING,SCREENING,2021-01-01,-14
D6470C00005,LB,D6470C00005-0027,9,K,Potassium,CHEMISTRY,SERUM,4.9,mmol/L,4.9,4.9,mmol/L,3.5,5.1,Y,1,SCREENING,SCREENING,2021-01-01,-14
D6470C00005,LB,D6470C00005-0027,10,CORTISOL,Cortisol,CHEMISTRY,SERUM,326.0,nmol/L,326.0,326.0,nmol/L,138,635,Y,1,SCREENING,SCREENING,2021-01-01,-14
D6470C00005,LB,D6470C00005-0027,11,HGB,Hemoglobin,HEMATOLOGY,SERUM,163.0,g/L,163.0,163.0,g/L,120,160,N,1,SCREENING,SCREENING,2021-01-01,-14
D6470C00005,LB,D6470C00005-0027,12,HCT,Hematocrit,HEMATOLOGY,SERUM,0.45,1,0.45,0.45,1,0.36,0.48,N,1,SCREENING,SCREENING,2021-01-01,-14
D6470C00005,LB,D6470C00005-0027,13,GLUC,Glucose,CHEMISTRY,SERUM,8.7,mmol/L,8.7,8.7,mmol/L,4.1,5.9,Y,3,DAY 4 (TP1),TREATMENT,2021-01-19,5
D6470C00005,LB,D6470C00005-0027,14,INSULIN,Insulin,CHEMISTRY,SERUM,127.0,pmol/L,127.0,127.0,pmol/L,18,173,Y,3,DAY 4 (TP1),TREATMENT,2021-01-19,5
D6470C00005,LB,D6470C00005-0027,15,CPEPTIDE,C-Peptide,CHEMISTRY,SERUM,1.21,nmol/L,1.21,1.21,nmol/L,0.37,1.47,Y,3,DAY 4 (TP1),TREATMENT,2021-01-19,5
D6470C00005,LB,D6470C00005-0027,16,HBA1C,Hemoglobin A1C,CHEMISTRY,SERUM,6.0,%,6.0,6.0,%,4.0,6.0,Y,3,DAY 4 (TP1),TREATMENT,2021-01-19,5
D6470C00005,LB,D6470C00005-0027,17,CHOL,Cholesterol,CHEMISTRY,SERUM,4.8,mmol/L,4.8,4.8,mmol/L,0,5.2,Y,3,DAY 4 (TP1),TREATMENT,2021-01-19,5
D6470C00005,LB,D6470C00005-0027,18,TRIG,Triglycerides,CHEMISTRY,SERUM,1.97,mmol/L,1.97,1.97,mmol/L,0,1.7,Y,3,DAY 4 (TP1),TREATMENT,2021-01-19,5
D6470C00005,LB,D6470C00005-0027,19,HDL,HDL Cholesterol,CHEMISTRY,SERUM,1.48,mmol/L,1.48,1.48,mmol/L,1.0,2.2,Y,3,DAY 4 (TP1),TREATMENT,2021-01-19,5
D6470C00005,LB,D6470C00005-0027,20,SODIUM,Sodium,CHEMISTRY,SERUM,137.0,mmol/L,137.0,137.0,mmol/L,136,145,Y,3,DAY 4 (TP1),TREATMENT,2021-01-19,5
D6470C00005,LB,D6470C00005-0027,21,K,Potassium,CHEMISTRY,SERUM,4.0,mmol/L,4.0,4.0,mmol/L,3.5,5.1,Y,3,DAY 4 (TP1),TREATMENT,2021-01-19,5
D6470C00005,LB,D6470C00005-0027,22,CORTISOL,Cortisol,CHEMISTRY,SERUM,543.0,nmol/L,543.0,543.0,nmol/L,138,635,Y,3,DAY 4 (TP1),TREATMENT,2021-01-19,5
D6470C00005,LB,D6470C00005-0027,23,HGB,Hemoglobin,HEMATOLOGY,SERUM,141.0,g/L,141.0,141.0,g/L,120,160,N,3,DAY 4 (TP1),TREATMENT,2021-01-19,5
D6470C00005,LB,D6470C00005-0027,24,HCT,Hematocrit,HEMATOLOGY,SERUM,0.4,1,0.4,0.4,1,0.36,0.48,N,3,DAY 4 (TP1),TREATMENT,2021-01-19,5
D6470C00005,LB,D6470C00005-0027,25,K,Potassium,URINALYSIS,URINE,53.0,mmol/L,53.0,53.0,mmol/L,,,N,3,DAY 4 (TP1),TREATMENT,2021-01-19,5
D6470C00005,LB,D6470C00005-0027,26,SODIUM,Sodium,URINALYSIS,URINE,139.0,mmol/L,139.0,139.0,mmol/L,,,N,3,DAY 4 (TP1),TREATMENT,2021-01-19,5
D6470C00005,LB,D6470C00005-0027,27,GLUC,Glucose,CHEMISTRY,SERUM,10.0,mmol/L,10.0,10.0,mmol/L,4.1,5.9,Y,5,DAY 31 (TP2),TREATMENT,2021-02-15,32
D6470C00005,LB,D6470C00005-0027,28,INSULIN,Insulin,CHEMISTRY,SERUM,41.0,pmol/L,41.0,41.0,pmol/L,18,173,Y,5,DAY 31 (TP2),TREATMENT,2021-02-15,32
D6470C00005,LB,D6470C00005-0027,29,CPEPTIDE,C-Peptide,CHEMISTRY,SERUM,1.23,nmol/L,1.23,1.23,nmol/L,0.37,1.47,Y,5,DAY 31 (TP2),TREATMENT,2021-02-15,32
D6470C00005,LB,D6470C00005-0027,30,HBA1C,Hemoglobin A1C,CHEMISTRY,SERUM,6.3,%,6.3,6.3,%,4.0,6.0,Y,5,DAY 31 (TP2),TREATMENT,2021-02-15,32
D6470C00005,LB,D6470C00005-0027,31,CHOL,Cholesterol,CHEMISTRY,SERUM,3.7,mmol/L,3.7,3.7,mmol/L,0,5.2,Y,5,DAY 31 (TP2),TREATMENT,2021-02-15,32
D6470C00005,LB,D6470C00005-0027,32,TRIG,Triglycerides,CHEMISTRY,SERUM,1.42,mmol/L,1.42,1.42,mmol/L,0,1.7,Y,5,DAY 31 (TP2),TREATMENT,2021-02-15,32
D6470C00005,LB,D6470C00005-0027,33,HDL,HDL Cholesterol,CHEMISTRY,SERUM,1.13,mmol/L,1.13,1.13,mmol/L,1.0,2.2,Y,5,DAY 31 (TP2),TREATMENT,2021-02-15,32
D6470C00005,LB,D6470C00005-0027,34,SODIUM,Sodium,CHEMISTRY,SERUM,139.0,mmol/L,139.0,139.0,mmol/L,136,145,Y,5,DAY 31 (TP2),TREATMENT,2021-02-15,32
D6470C00005,LB,D6470C00005-0027,35,K,Potassium,CHEMISTRY,SERUM,4.6,mmol/L,4.6,4.6,mmol/L,3.5,5.1,Y,5,DAY 31 (TP2),TREATMENT,2021-02-15,32
D6470C00005,LB,D6470C00005-0027,36,CORTISOL,Cortisol,CHEMISTRY,SERUM,185.0,nmol/L,185.0,185.0,nmol/L,138,635,Y,5,DAY 31 (TP2),TREATMENT,2021-02-15,32
D6470C00005,LB,D6470C00005-0027,37,HGB,Hemoglobin,HEMATOLOGY,SERUM,128.0,g/L,128.0,128.0,g/L,120,160,N,5,DAY 31 (TP2),TREATMENT,2021-02-15,32
D6470C00005,LB,D6470C00005-0027,38,HCT,Hematocrit,HEMATOLOGY,SERUM,0.45,1,0.45,0.45,1,0.36,0.48,N,5,DAY 31 (TP2),TREATMENT,2021-02-15,32
D6470C00005,LB,D6470C00005-0027,39,K,Potassium,URINALYSIS,URINE,31.0,mmol/L,31.0,31.0,mmol/L,,,N,5,DAY 31 (TP2),TREATMENT,2021-02-15,32
D6470C00005,LB,D6470C00005-0027,40,SODIUM,Sodium,URINALYSIS,URINE,84.0,mmol/L,84.0,84.0,mmol/L,,,N,5,DAY 31 (TP2),TREATMENT,2021-02-15,32
D6470C00005,LB,D6470C00005-0027,41,GLUC,Glucose,CHEMISTRY,SERUM,11.3,mmol/L,11.3,11.3,mmol/L,4.1,5.9,Y,6,FOLLOW-UP,FOLLOW-UP,2021-03-17,62
D6470C00005,LB,D6470C00005-0027,42,INSULIN,Insulin,CHEMISTRY,SERUM,84.0,pmol/L,84.0,84.0,pmol/L,18,173,Y,6,FOLLOW-UP,FOLLOW-UP,2021-03-17,62
D6470C00005,LB,D6470C00005-0027,43,CPEPTIDE,C-Peptide,CHEMISTRY,SERUM,0.77,nmol/L,0.77,0.77,nmol/L,0.37,1.47,Y,6,FOLLOW-UP,FOLLOW-UP,2021-03-17,62
D6470C00005,LB,D6470C00005-0027,44,HBA1C,Hemoglobin A1C,CHEMISTRY,SERUM,7.4,%,7.4,7.4,%,4.0,6.0,Y,6,FOLLOW-UP,FOLLOW-UP,2021-03-17,62
D6470C00005,LB,D6470C00005-0027,45,CHOL,Cholesterol,CHEMISTRY,SERUM,4.4,mmol/L,4.4,4.4,mmol/L,0,5.2,Y,6,FOLLOW-UP,FOLLOW-UP,2021-03-17,62
D6470C00005,LB,D6470C00005-0027,46,TRIG,Triglycerides,CHEMISTRY,SERUM,1.61,mmol/L,1.61,1.61,mmol/L,0,1.7,Y,6,FOLLOW-UP,FOLLOW-UP,2021-03-17,62
D6470C00005,LB,D6470C00005-0027,47,HDL,HDL Cholesterol,CHEMISTRY,SERUM,0.97,mmol/L,0.97,0.97,mmol/L,1.0,2.2,Y,6,FOLLOW-UP,FOLLOW-UP,2021-03-17,62
D6470C00005,LB,D6470C00005-0027,48,SODIUM,Sodium,CHEMISTRY,SERUM,141.0,mmol/L,141.0,141.0,mmol/L,136,145,Y,6,FOLLOW-UP,FOLLOW-UP,2021-03-17,62
D6470C00005,LB,D6470C00005-0027,49,K,Potassium,CHEMISTRY,SERUM,4.0,mmol/L,4.0,4.0,mmol/L,3.5,5.1,Y,6,FOLLOW-UP,FOLLOW-UP,2021-03-17,62
D6470C00005,LB,D6470C00005-0027,50,CORTISOL,Cortisol,CHEMISTRY,SERUM,360.0,nmol/L,360.0,360.0,nmol/L,138,635,Y,6,FOLLOW-UP,FOLLOW-UP,2021-03-17,62
D6470C00005,LB,D6470C00005-0027,51,HGB,Hemoglobin,HEMATOLOGY,SERUM,130.0,g/L,130.0,130.0,g/L,120,160,N,6,FOLLOW-UP,FOLLOW-UP,2021-03-17,62
D6470C00005,LB,D6470C00005-0027,52,HCT,Hematocrit,HEMATOLOGY,SERUM,0.4,1,0.4,0.4,1,0.36,0.48,N,6,FOLLOW-UP,FOLLOW-UP,2021-03-17,62
D6470C00005,LB,D6470C00005-0028,1,GLUC,Glucose,CHEMISTRY,SERUM,8.8,mmol/L,8.8,8.8,mmol/L,4.1,5.9,Y,1,SCREENING,SCREENING,2021-03-07,-14
D6470C00005,LB,D6470C00005-0028,2,INSULIN,Insulin,CHEMISTRY,SERUM,44.0,pmol/L,44.0,44.0,pmol/L,18,173,Y,1,SCREENING,SCREENING,2021-03-07,-14
D6470C00005,LB,D6470C00005-0028,3,CPEPTIDE,C-Peptide,CHEMISTRY,SERUM,1.26,nmol/L,1.26,1.26,nmol/L,0.37,1.47,Y,1,SCREENING,SCREENING,2021-03-07,-14
D6470C00005,LB,D6470C00005-0028,4,HBA1C,Hemoglobin A1C,CHEMISTRY,SERUM,8.3,%,8.3,8.3,%,4.0,6.0,Y,1,SCREENING,SCREENING,2021-03-07,-14
D6470C00005,LB,D6470C00005-0028,5,CHOL,Cholesterol,CHEMISTRY,SERUM,5.1,mmol/L,5.1,5.1,mmol/L,0,5.2,Y,1,SCREENING,SCREENING,2021-03-07,-14
D6470C00005,LB,D6470C00005-0028,6,TRIG,Triglycerides,CHEMISTRY,SERUM,1.11,mmol/L,1.11,1.11,mmol/L,0,1.7,Y,1,SCREENING,SCREENING,2021-03-07,-14
D6470C00005,LB,D6470C00005-0028,7,HDL,HDL Cholesterol,CHEMISTRY,SERUM,1.32,mmol/L,1.32,1.32,mmol/L,1.0,2.2,Y,1,SCREENING,SCREENING,2021-03-07,-14
D6470C00005,LB,D6470C00005-0028,8,SODIUM,Sodium,CHEMISTRY,SERUM,143.0,mmol/L,143.0,143.0,mmol/L,136,145,Y,1,SCREENING,SCREENING,2021-03-07,-14
D6470C00005,LB,D6470C00005-0028,9,K,Potassium,CHEMISTRY,SERUM,4.1,mmol/L,4.1,4.1,mmol/L,3.5,5.1,Y,1,SCREENING,SCREENING,2021-03-07,-14
D6470C00005,LB,D6470C00005-0028,10,CORTISOL,Cortisol,CHEMISTRY,SERUM,279.0,nmol/L,279.0,279.0,nmol/L,138,635,Y,1,SCREENING,SCREENING,2021-03-07,-14
D6470C00005,LB,D6470C00005-0028,11,HGB,Hemoglobin,HEMATOLOGY,SERUM,156.0,g/L,156.0,156.0,g/L,120,160,N,1,SCREENING,SCREENING,2021-03-07,-14
D6470C00005,LB,D6470C00005-0028,12,HCT,Hematocrit,HEMATOLOGY,SERUM,0.45,1,0.45,0.45,1,0.36,0.48,N,1,SCREENING,SCREENING,2021-03-07,-14
