{"_links":{"parentBiomedicalConcept":{"href":"/mdr/bc/biomedicalconcepts/C25298","title":"Systolic Blood Pressure","type":"Biomedical Concept"},"parentPackage":{"href":"/mdr/specializations/sdtm/packages/2026-05-26/datasetspecializations","title":"SDTM Dataset Specialization Package Effective 2026-05-26","type":"SDTM Dataset Specialization Package"},"self":{"href":"/mdr/specializations/sdtm/datasetspecializations/SYSBP","title":"Systolic Blood Pressure","type":"SDTM Dataset Specialization"}},"datasetSpecializationId":"SYSBP","domain":"VS","shortName":"Systolic Blood Pressure","source":"VS.VSTESTCD","sdtmigStartVersion":"3-2","sdtmigEndVersion":"","variables":[{"name":"VSTESTCD","isNonStandard":false,"codelist":{"conceptId":"C66741","submissionValue":"VSTESTCD","href":"https://evsexplore.semantics.cancer.gov/evsexplore/concept/ncit/C66741"},"assignedTerm":{"conceptId":"C25298","value":"SYSBP"},"role":"Topic","relationship":{"subject":"VSTESTCD","linkingPhrase":"is the code for the value in","predicateTerm":"IS_DECODED_BY","object":"VSTEST"},"mandatoryVariable":true,"mandatoryValue":true,"originType":"Assigned","originSource":"Sponsor","comparator":"EQ"},{"name":"VSTEST","isNonStandard":false,"codelist":{"conceptId":"C67153","submissionValue":"VSTEST","href":"https://evsexplore.semantics.cancer.gov/evsexplore/concept/ncit/C67153"},"assignedTerm":{"conceptId":"C25298","value":"Systolic Blood Pressure"},"role":"Qualifier","relationship":{"subject":"VSTEST","linkingPhrase":"decodes the value in","predicateTerm":"DECODES","object":"VSTESTCD"},"mandatoryVariable":true,"mandatoryValue":true,"originType":"Assigned","originSource":"Sponsor"},{"name":"VSORRES","dataElementConceptId":"C70856","isNonStandard":false,"role":"Qualifier","dataType":"integer","length":3,"relationship":{"subject":"VSORRES","linkingPhrase":"is the result of the test in","predicateTerm":"IS_RESULT_OF","object":"VSTESTCD"},"mandatoryVariable":true,"mandatoryValue":false,"originType":"Collected","originSource":"Investigator","vlmTarget":true},{"name":"VSORRESU","dataElementConceptId":"C49669","isNonStandard":false,"codelist":{"conceptId":"C66770","submissionValue":"VSRESU","href":"https://evsexplore.semantics.cancer.gov/evsexplore/concept/ncit/C66770"},"assignedTerm":{"conceptId":"C49670","value":"mmHg"},"role":"Qualifier","dataType":"text","length":20,"relationship":{"subject":"VSORRESU","linkingPhrase":"is the unit for the value in","predicateTerm":"IS_UNIT_FOR","object":"VSORRES"},"mandatoryVariable":true,"mandatoryValue":false,"originType":"Collected","originSource":"Investigator","vlmTarget":true},{"name":"VSSTRESC","dataElementConceptId":"C70856","isNonStandard":false,"role":"Qualifier","dataType":"integer","length":3,"relationship":{"subject":"VSSTRESC","linkingPhrase":"is the result of the test in","predicateTerm":"IS_RESULT_OF","object":"VSTESTCD"},"mandatoryVariable":false,"mandatoryValue":false,"originType":"Derived","originSource":"Sponsor","vlmTarget":true},{"name":"VSSTRESN","dataElementConceptId":"C70856","isNonStandard":false,"role":"Qualifier","dataType":"integer","length":3,"relationship":{"subject":"VSSTRESN","linkingPhrase":"is the result of the test in","predicateTerm":"IS_RESULT_OF","object":"VSTESTCD"},"mandatoryVariable":false,"mandatoryValue":false,"originType":"Derived","originSource":"Sponsor","vlmTarget":true},{"name":"VSSTRESU","dataElementConceptId":"C49669","isNonStandard":false,"codelist":{"conceptId":"C66770","submissionValue":"VSRESU","href":"https://evsexplore.semantics.cancer.gov/evsexplore/concept/ncit/C66770"},"assignedTerm":{"conceptId":"C49670","value":"mmHg"},"role":"Qualifier","dataType":"text","length":20,"relationship":{"subject":"VSSTRESU","linkingPhrase":"is the unit for the value in","predicateTerm":"IS_UNIT_FOR","object":"VSSTRESN"},"mandatoryVariable":false,"mandatoryValue":false,"originType":"Assigned","originSource":"Sponsor","vlmTarget":true},{"name":"VSPOS","dataElementConceptId":"C62164","isNonStandard":false,"codelist":{"conceptId":"C71148","submissionValue":"POSITION","href":"https://evsexplore.semantics.cancer.gov/evsexplore/concept/ncit/C71148"},"valueList":["PRONE","SEMI-RECUMBENT","SITTING","STANDING","SUPINE"],"role":"Qualifier","relationship":{"subject":"VSPOS","linkingPhrase":"is the subject position during performance of the test in","predicateTerm":"IS_SUBJECT_STATE_FOR","object":"VSTESTCD"},"mandatoryVariable":false,"mandatoryValue":false,"comparator":"IN"},{"name":"VSLOC","dataElementConceptId":"C13717","isNonStandard":false,"codelist":{"conceptId":"C74456","submissionValue":"LOC","href":"https://evsexplore.semantics.cancer.gov/evsexplore/concept/ncit/C74456"},"valueList":["BRACHIAL ARTERY","CAROTID ARTERY","DORSALIS PEDIS ARTERY","FEMORAL ARTERY","FINGER","RADIAL ARTERY"],"role":"Qualifier","relationship":{"subject":"VSLOC","linkingPhrase":"specifies the anatomical location of the performance of the test in","predicateTerm":"SPECIFIES","object":"VSTESTCD"},"mandatoryVariable":false,"mandatoryValue":false,"comparator":"IN"},{"name":"VSLAT","dataElementConceptId":"C25185","isNonStandard":false,"codelist":{"conceptId":"C99073","submissionValue":"LAT","href":"https://evsexplore.semantics.cancer.gov/evsexplore/concept/ncit/C99073"},"subsetCodelist":"VSLAT_BP","valueList":["LEFT","RIGHT"],"role":"Qualifier","relationship":{"subject":"VSLAT","linkingPhrase":"further specifies the anatomical location in","predicateTerm":"SPECIFIES","object":"VSLOC"},"mandatoryVariable":false,"mandatoryValue":false,"comparator":"IN"},{"name":"VSDTC","dataElementConceptId":"C82515","isNonStandard":false,"role":"Timing","relationship":{"subject":"VSDTC","linkingPhrase":"is the date of occurrence for","predicateTerm":"IS_TIMING_FOR","object":"VSTESTCD"},"mandatoryVariable":true,"mandatoryValue":false}]}